rtcDate,rtcTime,aX,aY,aZ,gX,gY,gZ,
05/25/2025,21:15:56.48,-997.56,-31.74,3.91,1.31,0.49,0.34,
05/25/2025,21:15:56.55,-991.70,-24.90,-1.95,3.17,2.32,1.31,
05/25/2025,21:15:56.57,-999.02,-32.23,-14.16,3.20,1.86,-0.09,
05/25/2025,21:15:56.59,-991.70,-33.69,-4.39,1.92,2.62,0.91,
05/25/2025,21:15:56.61,-997.07,-28.32,-3.42,1.52,4.05,-3.57,
05/25/2025,21:15:56.63,-993.16,-24.90,-3.42,1.95,2.50,-1.19,
05/25/2025,21:15:56.65,-997.07,-27.34,-0.49,2.32,1.55,-4.21,
05/25/2025,21:15:56.67,-1005.37,-17.09,-4.88,2.29,2.71,-2.50,
05/25/2025,21:15:56.69,-1005.37,-23.93,-3.42,1.92,4.45,-1.74,
05/25/2025,21:15:56.71,-1001.95,-33.20,-2.44,2.20,1.13,3.45,
05/25/2025,21:15:56.73,-992.68,-21.97,-4.39,1.46,1.65,-0.64,
05/25/2025,21:15:56.75,-1013.67,-26.37,-3.91,1.83,1.65,0.52,
05/25/2025,21:15:56.77,-997.56,-33.69,-9.77,2.23,1.01,-2.44,
05/25/2025,21:15:56.79,-1001.46,-22.95,-14.16,0.85,4.21,-0.09,
05/25/2025,21:15:56.81,-1011.23,-35.64,-7.81,0.76,2.47,-2.04,
05/25/2025,21:15:56.83,-989.75,-21.48,-3.91,0.76,3.51,0.76,
05/25/2025,21:15:56.85,-994.14,-14.16,-16.60,2.01,2.32,-0.76,
05/25/2025,21:15:56.87,-999.51,-32.23,-7.81,1.86,1.80,0.03,
05/25/2025,21:15:56.89,-998.54,-30.76,-18.55,1.74,1.52,-0.06,
05/25/2025,21:15:56.91,-1001.46,-35.16,-15.14,0.73,2.93,-2.04,
05/25/2025,21:15:56.93,-997.56,-25.39,-10.74,3.54,1.22,0.91,
05/25/2025,21:15:56.95,-1011.23,-24.41,-14.16,2.07,1.43,-0.55,
05/25/2025,21:15:56.97,-996.58,-20.51,-9.28,2.01,1.59,0.40,
05/25/2025,21:15:56.99,-999.51,-20.02,-13.18,1.65,-0.76,-0.24,
05/25/2025,21:15:57.04,-1004.88,-34.67,-17.09,1.49,2.65,4.09,
05/25/2025,21:15:57.06,-1000.98,-35.64,-9.77,1.40,1.34,-1.65,
05/25/2025,21:15:57.08,-996.09,-23.44,-16.11,1.68,1.46,0.09,
05/25/2025,21:15:57.10,-1007.32,-25.88,-4.39,0.88,2.47,-0.73,
05/25/2025,21:15:57.12,-990.23,-20.02,-8.79,1.71,-0.18,1.16,
05/25/2025,21:15:57.14,-1002.93,-16.60,-19.53,0.30,1.37,-2.10,
05/25/2025,21:15:57.16,-1005.37,-30.27,-6.84,0.79,2.62,-2.77,
05/25/2025,21:15:57.18,-1007.32,-34.18,-5.86,2.56,-0.70,-1.28,
05/25/2025,21:15:57.20,-1010.74,-27.34,-2.44,1.37,2.65,0.73,
05/25/2025,21:15:57.22,-1004.39,-16.11,-14.16,2.87,-0.70,-2.07,
05/25/2025,21:15:57.24,-1003.91,-24.41,-4.88,1.65,0.61,-1.59,
05/25/2025,21:15:57.26,-1005.86,-28.81,-2.93,1.59,0.27,-2.74,
05/25/2025,21:15:57.28,-999.51,-23.44,-10.74,1.31,1.89,1.71,
05/25/2025,21:15:57.30,-987.30,-35.16,-18.55,-0.27,1.04,1.25,
05/25/2025,21:15:57.32,-1003.42,-24.90,-0.49,1.46,2.77,2.50,
05/25/2025,21:15:57.34,-1006.84,-22.95,0.49,-1.31,2.59,-0.40,
05/25/2025,21:15:57.36,-992.19,-28.32,-12.21,1.16,1.52,0.00,
05/25/2025,21:15:57.38,-997.07,-28.32,-11.72,0.95,3.84,-1.65,
05/25/2025,21:15:57.40,-997.07,-32.23,-10.74,2.53,3.29,0.58,
05/25/2025,21:15:57.42,-1003.91,-21.48,-7.32,0.64,1.07,-0.43,
05/25/2025,21:15:57.44,-993.65,-36.13,-4.39,4.21,1.40,0.00,
05/25/2025,21:15:57.46,-1000.98,-27.83,1.95,2.29,4.42,-0.34,
05/25/2025,21:15:57.48,-998.05,-24.41,-10.25,0.58,2.38,-0.98,
05/25/2025,21:15:57.50,-1002.93,-28.32,-13.67,0.98,2.53,-0.06,
05/25/2025,21:15:57.55,-1008.79,-23.93,-12.70,1.01,1.89,-1.77,
05/25/2025,21:15:57.57,-991.21,-49.32,-10.74,0.03,0.15,-1.31,
05/25/2025,21:15:57.59,-1013.67,-24.90,-5.86,2.10,1.92,-0.70,
05/25/2025,21:15:57.61,-1011.23,-25.88,-11.72,1.01,1.98,1.01,
05/25/2025,21:15:57.63,-1000.00,-26.37,-6.84,1.16,1.31,1.62,
05/25/2025,21:15:57.65,-990.23,-19.04,0.98,1.13,-0.24,-3.41,
05/25/2025,21:15:57.67,-1001.95,-21.48,-12.21,2.23,1.22,-0.03,
05/25/2025,21:15:57.69,-999.51,-25.88,-9.28,0.76,3.41,-1.65,
05/25/2025,21:15:57.71,-1001.46,-35.64,-4.88,2.35,0.70,-0.21,
05/25/2025,21:15:57.73,-991.21,-26.86,3.91,1.68,1.98,-0.09,
05/25/2025,21:15:57.75,-990.23,-16.60,-17.58,1.49,0.88,-0.64,
05/25/2025,21:15:57.77,-997.07,-26.86,-11.23,2.26,2.38,-0.58,
05/25/2025,21:15:57.79,-1011.72,-24.41,-9.28,2.93,2.16,0.61,
05/25/2025,21:15:57.81,-1006.84,-19.04,-10.74,1.49,-0.79,1.07,
05/25/2025,21:15:57.83,-1000.49,-21.97,-9.77,2.65,3.26,2.90,
05/25/2025,21:15:57.85,-1001.95,-28.32,-6.35,0.37,1.71,4.63,
05/25/2025,21:15:57.87,-1004.88,-10.25,-1.95,0.58,4.12,-3.87,
05/25/2025,21:15:57.89,-1001.46,-23.93,-15.14,0.12,3.32,-2.62,
05/25/2025,21:15:57.91,-1003.91,-24.41,-9.77,1.31,1.01,0.00,
05/25/2025,21:15:57.93,-984.38,-32.23,2.93,3.38,0.21,0.52,
05/25/2025,21:15:57.95,-1007.81,-37.11,-3.91,1.07,2.47,2.20,
05/25/2025,21:15:57.97,-994.63,-25.39,-14.16,1.46,0.85,2.32,
05/25/2025,21:15:57.99,-1000.98,-15.14,7.81,1.16,-0.21,-1.31,
05/25/2025,21:15:58.01,-997.07,-28.32,-10.74,3.93,2.04,-1.34,
05/25/2025,21:15:58.06,-1002.93,-30.76,11.23,0.49,-1.40,-2.50,
05/25/2025,21:15:58.08,-985.84,-21.48,-13.18,2.80,0.64,1.52,
05/25/2025,21:15:58.10,-1006.84,-34.18,-13.67,0.15,2.44,-0.40,
05/25/2025,21:15:58.12,-1002.44,-21.97,-2.93,2.62,1.77,-1.55,
05/25/2025,21:15:58.14,-1006.84,-28.81,-10.25,0.55,4.91,-2.01,
05/25/2025,21:15:58.16,-996.09,-34.18,-14.65,1.89,1.04,-1.04,
05/25/2025,21:15:58.18,-1001.46,-25.39,3.91,-1.19,1.43,1.22,
05/25/2025,21:15:58.20,-1008.79,-24.41,-0.49,1.71,2.23,3.51,
05/25/2025,21:15:58.22,-1005.37,-24.90,-6.84,1.59,1.65,-2.47,
05/25/2025,21:15:58.24,-999.02,-28.32,-5.86,0.95,3.05,1.92,
05/25/2025,21:15:58.26,-1007.81,-28.32,-4.88,0.06,0.52,1.01,
05/25/2025,21:15:58.28,-1001.95,-29.30,-12.21,1.13,1.59,1.65,
05/25/2025,21:15:58.30,-1000.98,-27.83,-2.44,2.90,1.98,-2.23,
05/25/2025,21:15:58.33,-998.05,-19.53,-8.30,1.68,1.31,-0.64,
05/25/2025,21:15:58.35,-1015.62,-19.53,-8.30,1.25,1.74,-1.80,
05/25/2025,21:15:58.37,-1001.95,-18.55,-4.39,1.55,1.07,2.26,
05/25/2025,21:15:58.39,-1002.93,-25.39,0.98,-0.40,3.51,-3.20,
05/25/2025,21:15:58.41,-1005.86,-28.81,-0.98,-0.30,2.10,0.82,
05/25/2025,21:15:58.43,-997.56,-16.60,-2.93,0.61,2.16,-0.21,
05/25/2025,21:15:58.45,-1000.98,-32.71,-10.25,1.28,3.90,-0.24,
05/25/2025,21:15:58.47,-991.70,-18.55,2.44,1.80,0.88,2.77,
05/25/2025,21:15:58.49,-1000.98,-25.88,-2.44,2.71,2.16,-2.01,
05/25/2025,21:15:58.51,-1010.25,-18.55,-10.25,2.44,0.91,-0.21,
05/25/2025,21:15:58.53,-999.02,-25.39,-1.46,2.01,2.29,-0.03,
05/25/2025,21:15:58.58,-999.02,-27.34,0.00,3.11,0.52,1.07,
05/25/2025,21:15:58.60,-996.58,-25.39,0.49,0.27,0.76,-0.95,
05/25/2025,21:15:58.62,-1013.67,-16.11,-0.98,1.80,3.41,-0.24,
05/25/2025,21:15:58.64,-998.54,-25.88,-10.25,3.38,2.23,0.09,
05/25/2025,21:15:58.66,-1008.30,-34.67,-3.91,0.70,2.13,-0.18,
05/25/2025,21:15:58.68,-1009.77,-27.83,-9.77,1.34,3.14,0.55,
05/25/2025,21:15:58.70,-1010.25,-28.81,-10.74,-0.09,0.88,-1.62,
05/25/2025,21:15:58.72,-992.68,-24.41,-8.30,2.93,3.41,0.06,
05/25/2025,21:15:58.74,-1001.46,-24.41,-10.74,1.95,1.13,-1.01,
05/25/2025,21:15:58.76,-994.14,-26.37,-12.70,4.76,1.16,-1.19,
05/25/2025,21:15:58.78,-1009.77,-31.74,-6.35,0.21,0.46,-0.37,
05/25/2025,21:15:58.80,-994.14,-31.25,-8.79,1.71,3.78,-4.12,
05/25/2025,21:15:58.82,-1006.84,-22.95,-1.46,0.79,3.51,-1.86,
05/25/2025,21:15:58.84,-996.58,-37.60,-2.93,2.59,1.25,-2.16,
05/25/2025,21:15:58.86,-978.52,-22.46,-2.93,0.49,1.37,-1.22,
05/25/2025,21:15:58.88,-993.16,-26.37,-8.79,1.16,0.67,-1.98,
05/25/2025,21:15:58.90,-999.02,-16.60,-12.70,2.77,-0.49,3.14,
05/25/2025,21:15:58.92,-1009.77,-28.32,-17.58,1.68,0.37,1.01,
05/25/2025,21:15:58.94,-989.26,-23.93,-3.91,2.07,2.74,0.06,
05/25/2025,21:15:58.96,-1000.98,-36.13,-6.35,2.65,1.40,-0.49,
05/25/2025,21:15:58.98,-1005.86,-28.81,-1.95,1.62,1.95,2.23,
05/25/2025,21:15:59.00,-1009.77,-24.90,-11.23,2.80,1.68,0.49,
05/25/2025,21:15:59.02,-996.09,-38.57,-11.23,1.55,1.16,1.46,
05/25/2025,21:15:59.04,-999.51,-32.23,0.49,1.01,2.10,1.28,
05/25/2025,21:15:59.09,-1005.37,-24.90,-1.46,1.13,2.74,-1.22,
05/25/2025,21:15:59.11,-988.28,-27.83,-21.48,2.35,2.53,-0.58,
05/25/2025,21:15:59.13,-1013.67,-20.02,-1.46,2.32,1.59,-0.03,
05/25/2025,21:15:59.15,-999.51,-32.71,0.49,2.13,-0.76,0.18,
05/25/2025,21:15:59.17,-1005.86,-23.93,-15.62,1.01,-0.46,0.61,
05/25/2025,21:15:59.19,-1008.79,-18.07,-0.49,0.64,1.19,-0.61,
05/25/2025,21:15:59.21,-1003.42,-34.18,-8.30,1.80,2.44,-0.82,
05/25/2025,21:15:59.23,-996.09,-18.55,-9.77,1.68,2.32,0.34,
05/25/2025,21:15:59.25,-988.28,-31.25,-16.11,2.38,0.27,-0.67,
05/25/2025,21:15:59.27,-992.19,-30.27,-23.44,3.29,0.82,0.58,
05/25/2025,21:15:59.29,-991.21,-30.76,-4.39,2.29,0.67,-0.27,
05/25/2025,21:15:59.31,-993.65,-24.90,-13.18,3.84,0.61,0.00,
05/25/2025,21:15:59.33,-999.51,-33.20,-8.79,1.01,0.61,-1.68,
05/25/2025,21:15:59.35,-1002.44,-15.62,-13.67,3.17,0.24,-0.49,
05/25/2025,21:15:59.37,-999.02,-47.36,-15.62,1.25,2.59,-1.49,
05/25/2025,21:15:59.39,-996.09,-18.07,-8.30,2.35,2.23,-1.95,
05/25/2025,21:15:59.41,-993.16,-30.27,-9.77,2.26,2.04,0.34,
05/25/2025,21:15:59.43,-1005.37,-12.70,3.91,0.21,0.37,-0.43,
05/25/2025,21:15:59.45,-1005.86,-30.27,-6.84,1.49,1.98,-5.55,
05/25/2025,21:15:59.47,-1002.44,-25.39,-2.44,1.62,1.22,-1.65,
05/25/2025,21:15:59.49,-994.63,-30.76,-7.32,0.61,4.76,-2.13,
05/25/2025,21:15:59.51,-1002.93,-17.09,-7.32,0.67,0.73,1.04,
05/25/2025,21:15:59.53,-995.12,-30.76,-1.46,2.32,2.16,0.06,
05/25/2025,21:15:59.55,-999.51,-29.30,-8.30,2.59,2.29,-2.04,
05/25/2025,21:15:59.60,-987.79,-32.23,15.14,3.14,3.45,1.07,
05/25/2025,21:15:59.62,-996.58,-27.34,-13.18,2.07,1.80,-1.62,
05/25/2025,21:15:59.64,-997.07,-25.39,-3.42,1.59,-0.52,0.61,
05/25/2025,21:15:59.66,-996.09,-17.09,-4.39,3.45,0.88,2.41,
05/25/2025,21:15:59.68,-995.61,-38.09,1.46,0.03,4.70,-1.98,
05/25/2025,21:15:59.70,-985.35,-40.04,-18.07,0.85,0.88,-0.18,
05/25/2025,21:15:59.72,-1006.84,-26.37,-1.46,0.12,1.83,-0.70,
05/25/2025,21:15:59.74,-992.19,-23.93,0.98,0.70,2.10,1.92,
05/25/2025,21:15:59.76,-994.63,-28.81,-3.42,1.40,3.26,-1.52,
05/25/2025,21:15:59.78,-994.14,-40.53,0.49,1.04,2.07,-0.61,
05/25/2025,21:15:59.80,-1010.25,-24.41,6.35,0.52,1.65,-0.18,
05/25/2025,21:15:59.82,-994.63,-28.81,-13.67,1.65,2.99,2.56,
05/25/2025,21:15:59.84,-994.14,-21.00,1.46,3.32,2.59,1.25,
05/25/2025,21:15:59.86,-998.05,-26.37,0.49,1.77,1.98,-1.43,
05/25/2025,21:15:59.88,-995.12,-29.30,-13.18,0.70,1.71,0.52,
05/25/2025,21:15:59.90,-1003.91,-26.86,0.98,1.46,2.44,-1.65,
05/25/2025,21:15:59.92,-1004.88,-37.11,-9.77,1.49,3.32,-0.73,
05/25/2025,21:15:59.94,-989.75,-18.55,-7.32,0.43,2.16,1.07,
05/25/2025,21:15:59.96,-1003.42,-28.32,-12.21,1.19,0.52,-2.84,
05/25/2025,21:15:59.98,-1000.98,-28.32,2.93,0.03,2.32,-0.03,
05/25/2025,21:16:00.00,-998.54,-36.62,-9.77,-0.46,1.89,-4.12,
05/25/2025,21:16:00.02,-1001.46,-22.95,-4.88,2.71,1.52,-2.84,
05/25/2025,21:16:00.04,-998.05,-21.48,-4.39,2.26,1.77,0.95,
05/25/2025,21:16:00.06,-1000.98,-16.11,-4.88,0.24,2.62,-1.31,
05/25/2025,21:16:00.11,-992.19,-39.55,-10.74,0.88,2.26,2.04,
05/25/2025,21:16:00.13,-1005.86,-19.53,-4.39,0.52,2.10,0.85,
05/25/2025,21:16:00.15,-1010.74,-36.13,-13.18,0.67,2.10,-1.04,
05/25/2025,21:16:00.17,-991.70,-38.57,-9.28,2.16,1.49,-3.32,
05/25/2025,21:16:00.19,-1002.93,-33.69,1.95,-0.82,3.02,0.46,
05/25/2025,21:16:00.21,-1008.30,-16.11,3.91,2.13,1.13,-0.30,
05/25/2025,21:16:00.23,-1000.49,-29.30,-8.30,0.34,1.59,-1.89,
05/25/2025,21:16:00.25,-1003.91,-26.86,-3.42,1.71,0.98,-0.37,
05/25/2025,21:16:00.27,-1001.46,-29.79,5.37,2.77,1.31,-0.03,
05/25/2025,21:16:00.29,-999.51,-28.81,0.98,2.62,1.31,0.82,
05/25/2025,21:16:00.31,-1001.46,-27.83,-11.72,0.18,4.88,-0.64,
05/25/2025,21:16:00.33,-1002.93,-28.32,-12.21,-0.27,4.02,1.07,
05/25/2025,21:16:00.35,-1003.42,-24.41,9.77,1.40,1.92,-2.20,
05/25/2025,21:16:00.37,-1010.25,-33.20,-12.70,1.43,1.04,-1.10,
05/25/2025,21:16:00.39,-994.63,-20.51,-6.84,-2.07,0.18,0.43,
05/25/2025,21:16:00.41,-993.16,-24.90,-13.67,-0.15,0.58,0.12,
05/25/2025,21:16:00.43,-1011.72,-26.37,-4.88,0.00,2.87,-3.96,
05/25/2025,21:16:00.45,-1005.86,-34.18,-8.30,1.71,1.74,0.73,
05/25/2025,21:16:00.47,-1005.37,-29.79,-11.72,1.83,0.09,0.21,
05/25/2025,21:16:00.49,-999.02,-29.30,-17.58,2.99,-0.52,0.76,
05/25/2025,21:16:00.51,-1004.39,-26.86,-0.49,1.22,1.13,-1.01,
05/25/2025,21:16:00.53,-984.38,-31.25,-1.95,3.26,2.50,-0.24,
05/25/2025,21:16:00.55,-996.58,-24.41,0.49,1.83,1.19,1.07,
05/25/2025,21:16:00.57,-1004.39,-27.34,-3.42,0.73,2.10,-1.52,
05/25/2025,21:16:00.62,-1004.88,-38.09,-11.23,1.86,0.12,-0.09,
05/25/2025,21:16:00.64,-985.35,-34.67,-1.95,0.73,2.50,-3.35,
05/25/2025,21:16:00.66,-1007.32,-31.74,-6.84,0.95,1.98,-2.84,
05/25/2025,21:16:00.68,-1001.95,-27.83,-7.81,1.52,2.13,-1.68,
05/25/2025,21:16:00.70,-1006.35,-22.95,-6.35,0.49,0.09,-2.56,
05/25/2025,21:16:00.72,-996.58,-23.93,-6.35,2.23,1.19,-1.52,
05/25/2025,21:16:00.74,-1002.44,-22.95,-9.77,1.95,-0.58,1.80,
05/25/2025,21:16:00.76,-991.21,-34.67,-16.11,0.55,-0.88,0.46,
05/25/2025,21:16:00.78,-1014.16,-30.76,-3.42,0.15,1.68,-1.37,
05/25/2025,21:16:00.80,-1006.35,-29.30,-15.62,1.04,0.15,-2.47,
05/25/2025,21:16:00.82,-991.70,-24.41,-12.21,-0.79,2.77,-1.71,
05/25/2025,21:16:00.84,-1012.21,-18.55,-19.04,2.71,1.77,-3.20,
05/25/2025,21:16:00.86,-1010.74,-24.41,-12.70,-1.07,2.47,-0.09,
05/25/2025,21:16:00.88,-1005.86,-22.95,-4.88,0.24,0.61,1.22,
05/25/2025,21:16:00.90,-1015.14,-32.71,-2.44,2.16,1.83,-0.73,
05/25/2025,21:16:00.92,-1000.49,-12.70,-4.39,1.95,1.95,0.06,
05/25/2025,21:16:00.94,-994.14,-16.11,-14.65,3.11,2.62,-0.03,
05/25/2025,21:16:00.96,-1004.88,-27.83,1.46,2.10,0.95,-2.56,
05/25/2025,21:16:00.98,-999.51,-33.69,-4.88,0.95,1.52,0.03,
05/25/2025,21:16:01.00,-1001.46,-36.13,-10.74,2.07,2.13,-1.01,
05/25/2025,21:16:01.02,-997.07,-22.46,-16.11,2.74,2.26,1.31,
05/25/2025,21:16:01.04,-1004.39,-13.67,-1.95,-0.43,1.95,-1.95,
05/25/2025,21:16:01.06,-1001.95,-22.46,-3.91,1.83,3.38,1.16,
05/25/2025,21:16:01.08,-1007.81,-26.37,-17.58,-0.43,0.88,-2.65,
05/25/2025,21:16:01.13,-989.26,-20.51,-5.37,1.65,1.10,1.95,
05/25/2025,21:16:01.15,-1002.44,-21.48,0.98,0.12,4.63,-2.07,
05/25/2025,21:16:01.17,-1002.44,-28.81,-1.95,1.92,2.23,-0.52,
05/25/2025,21:16:01.19,-1001.95,-14.16,0.49,3.90,1.52,-0.52,
05/25/2025,21:16:01.21,-1005.86,-27.83,-7.81,1.22,2.07,-2.47,
05/25/2025,21:16:01.23,-1003.91,-24.41,-2.44,1.10,-0.12,1.13,
05/25/2025,21:16:01.25,-993.65,-23.93,1.46,2.41,1.10,-0.15,
05/25/2025,21:16:01.27,-1011.72,-18.07,-3.42,1.86,1.95,1.65,
05/25/2025,21:16:01.29,-987.79,-23.44,-3.91,1.01,-0.15,-1.92,
05/25/2025,21:16:01.31,-990.72,-20.02,-7.32,0.27,1.89,-2.16,
05/25/2025,21:16:01.33,-1012.21,-37.11,2.93,0.73,1.10,-2.16,
05/25/2025,21:16:01.35,-1010.74,-22.46,-2.44,0.00,2.56,-2.20,
05/25/2025,21:16:01.37,-991.21,-31.74,-16.11,1.01,0.88,0.03,
05/25/2025,21:16:01.39,-1000.98,-20.02,-16.11,0.70,1.10,-0.52,
05/25/2025,21:16:01.42,-988.77,-29.30,-11.72,1.43,0.27,-0.43,
05/25/2025,21:16:01.44,-1002.44,-26.37,10.74,2.53,0.79,1.16,
05/25/2025,21:16:01.46,-1009.28,-28.32,-2.44,3.11,1.28,-0.88,
05/25/2025,21:16:01.48,-1007.81,-24.41,-8.30,1.77,3.81,0.61,
05/25/2025,21:16:01.50,-991.70,-27.34,2.93,3.02,1.95,-0.52,
05/25/2025,21:16:01.52,-999.51,-13.67,-2.93,2.53,1.49,0.18,
05/25/2025,21:16:01.54,-1004.88,-35.64,-6.35,1.68,2.59,0.55,
05/25/2025,21:16:01.56,-1000.49,-27.34,-3.91,2.44,2.71,-1.40,
05/25/2025,21:16:01.58,-1001.95,-29.30,-6.35,0.88,1.95,0.12,
05/25/2025,21:16:01.60,-1001.95,-25.39,-3.91,-0.30,3.48,-0.12,
05/25/2025,21:16:01.65,-994.14,-27.34,-4.39,3.17,5.34,-1.98,
05/25/2025,21:16:01.67,-980.96,-30.27,4.88,3.26,-0.09,1.16,
05/25/2025,21:16:01.69,-1003.42,-17.58,-3.91,1.59,0.21,-0.12,
05/25/2025,21:16:01.71,-997.07,-16.60,-1.46,2.35,0.79,0.70,
05/25/2025,21:16:01.73,-996.58,-25.39,-15.62,2.59,1.86,3.87,
05/25/2025,21:16:01.75,-1002.44,-42.97,-11.23,1.31,-0.58,0.76,
05/25/2025,21:16:01.77,-1009.77,-11.23,-14.16,1.74,-0.21,0.82,
05/25/2025,21:16:01.79,-1007.81,-22.46,-11.23,0.73,2.07,-0.27,
05/25/2025,21:16:01.81,-996.58,-28.81,-9.77,1.95,2.07,-1.16,
05/25/2025,21:16:01.83,-1004.88,-35.64,-9.28,-0.95,1.74,3.23,
05/25/2025,21:16:01.85,-1000.98,-33.20,-7.81,0.67,3.08,2.68,
05/25/2025,21:16:01.87,-994.63,-25.88,-12.21,0.98,1.80,1.16,
05/25/2025,21:16:01.89,-994.63,-35.16,-4.88,-0.15,2.77,-2.29,
05/25/2025,21:16:01.91,-1003.42,-26.86,4.39,1.10,2.01,-3.60,
05/25/2025,21:16:01.93,-1002.44,-22.95,-6.84,0.43,1.49,-0.95,
05/25/2025,21:16:01.95,-990.72,-21.48,-3.42,0.34,1.37,-3.99,
05/25/2025,21:16:01.97,-996.58,-34.67,-15.14,-0.12,3.29,-2.32,
05/25/2025,21:16:01.99,-987.30,-22.95,-8.79,1.52,-0.21,1.74,
05/25/2025,21:16:02.01,-991.21,-20.51,-3.42,2.53,0.91,-4.12,
05/25/2025,21:16:02.03,-1000.49,-26.86,-5.86,2.44,3.11,-0.76,
05/25/2025,21:16:02.05,-991.70,-27.83,-5.86,-0.15,5.30,0.06,
05/25/2025,21:16:02.07,-987.79,-37.11,-7.81,2.80,2.35,-0.49,
05/25/2025,21:16:02.09,-1002.44,-34.67,-13.67,1.65,3.08,-2.29,
05/25/2025,21:16:02.11,-999.02,-21.97,-0.98,-0.70,1.77,-2.32,
05/25/2025,21:16:02.16,-1004.88,-35.16,-4.39,0.88,1.62,0.82,
05/25/2025,21:16:02.18,-1003.91,-19.04,-1.46,1.55,3.05,-0.24,
05/25/2025,21:16:02.20,-993.65,-20.02,-8.79,1.40,1.10,4.15,
05/25/2025,21:16:02.22,-991.70,-20.02,-2.44,0.52,-0.61,1.49,
05/25/2025,21:16:02.24,-1009.28,-23.44,-6.35,-0.46,2.41,-0.98,
05/25/2025,21:16:02.26,-1006.35,-23.44,-4.88,1.52,1.25,-2.68,
05/25/2025,21:16:02.28,-1001.46,-21.48,-3.42,3.57,1.40,-0.12,
05/25/2025,21:16:02.30,-1000.00,-25.88,-6.35,2.56,3.51,3.54,
05/25/2025,21:16:02.32,-1007.32,-39.06,-16.60,0.00,2.41,0.61,
05/25/2025,21:16:02.34,-1000.98,-32.71,-3.91,1.95,1.49,1.10,
05/25/2025,21:16:02.36,-1002.44,-27.34,-8.30,2.68,1.62,-1.43,
05/25/2025,21:16:02.38,-999.02,-22.46,-8.79,0.76,2.47,-0.49,
05/25/2025,21:16:02.40,-993.65,-31.74,1.46,3.96,2.50,0.76,
05/25/2025,21:16:02.42,-994.14,-31.25,-14.16,0.55,3.26,-0.98,
05/25/2025,21:16:02.44,-993.16,-32.71,-8.79,0.73,4.51,-2.96,
05/25/2025,21:16:02.46,-997.56,-29.79,-14.16,1.80,1.55,-2.35,
05/25/2025,21:16:02.48,-1010.25,-20.02,-16.60,0.79,1.68,1.89,
05/25/2025,21:16:02.50,-999.51,-18.55,-16.60,1.80,1.71,2.41,
05/25/2025,21:16:02.52,-1001.95,-30.76,-19.04,0.82,2.93,-1.28,
05/25/2025,21:16:02.54,-989.75,-33.20,-7.81,0.95,-0.37,-1.83,
05/25/2025,21:16:02.56,-994.63,-30.76,-4.39,1.16,2.04,0.46,
05/25/2025,21:16:02.58,-1005.86,-23.44,-10.25,3.48,2.10,3.17,
05/25/2025,21:16:02.60,-1006.35,-29.79,-15.14,1.95,2.38,-1.68,
05/25/2025,21:16:02.62,-990.23,-32.23,-7.32,0.95,1.89,-0.27,
05/25/2025,21:16:02.67,-1007.81,-16.11,-5.37,0.95,4.24,0.15,
05/25/2025,21:16:02.69,-1007.81,-20.02,-6.35,2.53,0.91,0.70,
05/25/2025,21:16:02.71,-1000.00,-17.09,-1.95,0.24,0.52,0.88,
05/25/2025,21:16:02.73,-994.14,-22.95,-10.25,1.19,1.62,-2.44,
05/25/2025,21:16:02.75,-1004.39,-19.53,-8.79,1.98,1.19,-2.26,
05/25/2025,21:16:02.77,-1005.86,-16.11,-0.98,1.34,-0.27,3.81,
05/25/2025,21:16:02.79,-1008.30,-27.34,-14.16,1.89,2.59,-1.04,
05/25/2025,21:16:02.81,-1006.84,-38.57,-7.81,2.68,1.31,-0.91,
05/25/2025,21:16:02.83,-995.61,-17.09,-6.35,1.22,1.01,-0.82,
05/25/2025,21:16:02.85,-1005.86,-30.27,-15.14,0.85,2.10,-1.89,
05/25/2025,21:16:02.87,-1005.37,-23.44,-3.91,0.34,2.99,1.10,
05/25/2025,21:16:02.89,-1005.86,-16.11,-15.62,2.90,1.55,-0.58,
05/25/2025,21:16:02.91,-994.63,-25.39,-3.91,0.34,4.51,-0.12,
05/25/2025,21:16:02.93,-1012.21,-23.44,0.00,0.43,1.98,-3.48,
05/25/2025,21:16:02.95,-986.82,-22.95,-16.11,2.50,4.94,-2.16,
05/25/2025,21:16:02.97,-1002.93,-20.51,5.37,2.23,1.34,-0.49,
05/25/2025,21:16:02.99,-999.02,-19.04,-2.44,1.28,2.13,-0.12,
05/25/2025,21:16:03.01,-999.02,-36.13,-9.77,3.08,3.11,2.84,
05/25/2025,21:16:03.03,-1005.86,-21.97,-9.28,2.44,1.71,-0.15,
05/25/2025,21:16:03.05,-1007.81,-22.46,-16.60,2.96,1.16,1.62,
05/25/2025,21:16:03.07,-997.07,-25.88,-17.58,2.07,1.80,-2.13,
05/25/2025,21:16:03.09,-1003.91,-31.25,0.00,0.09,2.62,-1.07,
05/25/2025,21:16:03.11,-996.09,-42.48,-17.58,1.43,2.59,-0.46,
05/25/2025,21:16:03.13,-1002.44,-21.48,-9.28,-0.03,-0.52,-1.49,
05/25/2025,21:16:03.18,-999.51,-29.30,-4.88,1.13,0.21,0.91,
05/25/2025,21:16:03.20,-995.12,-36.13,-14.16,1.16,1.22,1.22,
05/25/2025,21:16:03.22,-999.02,-38.57,-3.91,2.56,-1.07,3.17,
05/25/2025,21:16:03.24,-1002.93,-18.07,-14.16,1.74,2.20,2.38,
05/25/2025,21:16:03.26,-987.30,-19.53,-1.95,2.41,1.55,-1.19,
05/25/2025,21:16:03.28,-1000.00,-23.44,-1.46,1.13,3.14,-0.95,
05/25/2025,21:16:03.30,-1006.35,-40.53,-1.46,1.13,1.16,-1.49,
05/25/2025,21:16:03.32,-1008.30,-28.81,-7.32,2.10,2.04,-2.04,
05/25/2025,21:16:03.34,-993.65,-39.06,-9.77,1.65,3.48,0.03,
05/25/2025,21:16:03.36,-993.65,-34.67,-0.49,0.18,2.13,1.34,
05/25/2025,21:16:03.38,-1002.93,-31.25,-4.88,2.74,3.57,2.65,
05/25/2025,21:16:03.40,-998.54,-27.83,-9.28,3.96,1.13,1.01,
05/25/2025,21:16:03.42,-1000.49,-19.53,-5.86,1.49,2.96,-0.34,
05/25/2025,21:16:03.44,-1014.65,-26.86,-5.37,2.90,1.98,-0.21,
05/25/2025,21:16:03.46,-1008.79,-29.30,-2.44,0.79,2.68,-3.38,
05/25/2025,21:16:03.48,-1003.91,-28.32,4.88,2.04,2.13,2.65,
05/25/2025,21:16:03.50,-1001.46,-30.27,-7.32,1.71,1.98,-1.86,
05/25/2025,21:16:03.52,-995.61,-30.27,-11.23,0.15,1.10,1.86,
05/25/2025,21:16:03.54,-1013.67,-25.39,-1.95,2.62,0.55,0.40,
05/25/2025,21:16:03.56,-997.56,-23.93,-14.16,0.82,2.01,0.18,
05/25/2025,21:16:03.58,-1006.35,-19.53,-17.58,1.71,1.77,-0.46,
05/25/2025,21:16:03.60,-1000.00,-36.13,-17.09,1.16,0.79,-3.29,
05/25/2025,21:16:03.62,-1001.95,-26.37,-10.74,1.40,3.51,0.12,
05/25/2025,21:16:03.64,-1004.88,-17.58,-0.49,2.77,1.55,-1.80,
05/25/2025,21:16:03.70,-1009.28,-25.88,-4.88,3.38,0.88,-0.03,
05/25/2025,21:16:03.72,-1004.39,-19.04,-17.09,1.25,1.86,-1.28,
05/25/2025,21:16:03.74,-999.02,-31.25,-3.91,1.77,1.80,-3.81,
05/25/2025,21:16:03.76,-998.05,-23.44,-12.21,1.34,2.35,-0.49,
05/25/2025,21:16:03.78,-999.51,-37.60,-10.74,2.38,1.86,0.30,
05/25/2025,21:16:03.80,-987.30,-16.11,-17.09,0.91,3.66,0.58,
05/25/2025,21:16:03.82,-1000.98,-16.60,-0.49,1.52,1.37,-2.10,
05/25/2025,21:16:03.84,-999.51,-27.34,-11.23,0.95,2.59,-1.68,
05/25/2025,21:16:03.86,-1018.55,-27.83,-6.35,1.37,0.67,-2.68,
05/25/2025,21:16:03.88,-1007.81,-30.27,-9.28,0.37,2.16,-1.62,
05/25/2025,21:16:03.90,-993.16,-44.43,4.88,2.26,3.51,-0.61,
05/25/2025,21:16:03.92,-1006.84,-33.20,-12.70,1.37,2.01,0.98,
05/25/2025,21:16:03.94,-999.02,-32.71,-12.70,1.77,-0.88,-2.16,
05/25/2025,21:16:03.96,-1007.81,-24.90,4.39,1.71,2.93,0.82,
05/25/2025,21:16:03.98,-1002.44,-22.95,-15.14,1.46,3.63,0.76,
05/25/2025,21:16:04.00,-1003.42,-29.30,-2.93,2.29,3.05,1.71,
05/25/2025,21:16:04.02,-1004.39,-22.95,-14.16,0.95,2.44,0.85,
05/25/2025,21:16:04.04,-997.07,-18.55,0.00,2.20,2.77,0.82,
05/25/2025,21:16:04.06,-1000.00,-30.27,-9.77,0.88,2.32,2.29,
05/25/2025,21:16:04.08,-1005.86,-21.00,-9.28,1.65,4.39,-0.24,
05/25/2025,21:16:04.10,-993.16,-24.90,-8.30,3.14,2.13,0.24,
05/25/2025,21:16:04.12,-989.26,-25.88,-2.93,1.65,1.07,-0.85,
05/25/2025,21:16:04.14,-1002.93,-26.37,-10.25,3.14,2.65,-1.74,
05/25/2025,21:16:04.16,-1001.46,-24.41,-2.93,1.62,2.47,-0.70,
05/25/2025,21:16:04.22,-996.58,-25.88,-10.74,0.55,5.03,-1.46,
05/25/2025,21:16:04.24,-994.14,-24.90,-11.72,0.76,1.40,-3.78,
05/25/2025,21:16:04.26,-1003.42,-27.83,-5.37,2.16,1.77,2.80,
05/25/2025,21:16:04.28,-998.05,-21.00,-1.95,1.07,0.73,-1.83,
05/25/2025,21:16:04.30,-1008.79,-29.79,-5.37,1.34,-0.09,3.32,
05/25/2025,21:16:04.32,-988.28,-33.20,-1.46,2.71,-0.70,1.37,
05/25/2025,21:16:04.34,-1015.62,-30.76,-6.84,1.89,0.49,1.95,
05/25/2025,21:16:04.36,-986.82,-20.51,-3.42,0.37,2.74,-2.68,
05/25/2025,21:16:04.38,-996.58,-16.60,-4.88,-0.70,2.99,-0.98,
05/25/2025,21:16:04.40,-1002.44,-17.58,-12.70,0.88,1.62,-0.55,
05/25/2025,21:16:04.42,-1002.44,-30.76,3.91,3.14,2.65,-0.64,
05/25/2025,21:16:04.44,-1006.84,-36.13,3.42,0.55,2.96,0.55,
05/25/2025,21:16:04.46,-1001.95,-29.79,-2.93,2.16,0.52,0.73,
05/25/2025,21:16:04.48,-1008.79,-20.02,-1.95,2.35,2.53,3.17,
05/25/2025,21:16:04.50,-1003.91,-31.25,-1.46,1.89,2.50,-0.49,
05/25/2025,21:16:04.52,-1002.93,-27.34,-9.77,2.38,-0.55,-0.98,
05/25/2025,21:16:04.54,-995.12,-26.86,-1.46,1.22,1.25,0.67,
05/25/2025,21:16:04.56,-997.56,-21.00,-4.88,2.04,0.09,-1.16,
05/25/2025,21:16:04.58,-988.77,-27.34,-1.46,1.01,0.98,2.07,
05/25/2025,21:16:04.60,-997.07,-42.48,-9.28,0.18,1.37,-0.55,
05/25/2025,21:16:04.62,-1002.93,-23.44,-12.70,0.30,0.64,-0.85,
05/25/2025,21:16:04.64,-999.02,-25.88,-11.23,-0.64,1.52,-4.15,
05/25/2025,21:16:04.66,-992.68,-25.88,-12.70,0.82,3.60,-0.43,
05/25/2025,21:16:04.68,-990.23,-20.02,-7.32,1.65,3.17,0.43,
05/25/2025,21:16:04.73,-1007.81,-25.88,1.46,1.92,4.36,0.12,
05/25/2025,21:16:04.75,-1004.39,-21.48,5.86,2.62,2.16,-0.55,
05/25/2025,21:16:04.77,-1004.39,-29.30,-6.84,1.95,-0.70,0.91,
05/25/2025,21:16:04.79,-1016.11,-34.18,-8.79,3.35,0.91,0.95,
05/25/2025,21:16:04.81,-995.61,-19.04,1.46,1.80,-0.21,-4.51,
05/25/2025,21:16:04.83,-1001.95,-23.44,-12.21,1.59,1.98,0.61,
05/25/2025,21:16:04.85,-1000.00,-13.67,-16.60,1.68,3.08,-1.65,
05/25/2025,21:16:04.87,-998.05,-21.97,-8.30,-0.67,3.63,-0.49,
05/25/2025,21:16:04.89,-996.09,-35.16,-9.77,0.95,1.46,-1.62,
05/25/2025,21:16:04.91,-997.07,-31.25,-17.58,2.68,2.87,-0.82,
05/25/2025,21:16:04.93,-994.63,-27.83,-4.39,0.18,3.87,-0.46,
05/25/2025,21:16:04.95,-995.61,-23.93,-9.28,1.65,1.62,-1.19,
05/25/2025,21:16:04.97,-996.58,-37.60,-9.77,0.15,-0.49,0.46,
05/25/2025,21:16:04.99,-1005.37,-34.67,-1.46,1.49,2.53,0.43,
05/25/2025,21:16:05.01,-1005.37,-18.55,-17.09,2.13,2.01,-1.86,
05/25/2025,21:16:05.03,-1000.49,-29.79,-1.95,-1.37,2.23,0.61,
05/25/2025,21:16:05.05,-1003.91,-18.55,-10.74,1.68,1.62,-3.35,
05/25/2025,21:16:05.07,-994.63,-19.53,-5.37,1.98,2.10,0.67,
05/25/2025,21:16:05.09,-997.07,-25.39,-21.97,0.79,1.16,-1.46,
05/25/2025,21:16:05.11,-999.02,-22.46,-3.91,2.16,2.32,-1.49,
05/25/2025,21:16:05.13,-995.61,-27.34,-0.98,1.49,1.31,-3.57,
05/25/2025,21:16:05.15,-995.12,-30.27,-2.93,1.95,3.54,-1.46,
05/25/2025,21:16:05.17,-1004.88,-16.11,-6.35,2.04,2.56,-0.55,
05/25/2025,21:16:05.19,-1005.37,-30.27,-10.25,1.95,1.89,-2.01,
05/25/2025,21:16:05.24,-994.14,-38.09,-13.67,-0.03,1.40,1.95,
05/25/2025,21:16:05.26,-1009.77,-21.48,-3.91,1.40,5.76,-0.09,
05/25/2025,21:16:05.28,-989.75,-38.57,-15.62,-0.24,2.65,1.28,
05/25/2025,21:16:05.30,-1002.44,-28.81,-2.44,2.74,0.34,1.49,
05/25/2025,21:16:05.32,-1004.39,-24.41,3.91,2.29,1.19,-0.37,
05/25/2025,21:16:05.34,-1006.84,-27.34,-12.70,4.70,2.84,0.52,
05/25/2025,21:16:05.36,-1001.95,-12.21,-16.11,-0.37,1.28,1.07,
05/25/2025,21:16:05.38,-991.21,-31.74,-0.98,1.46,2.44,0.15,
05/25/2025,21:16:05.40,-1010.25,-25.88,-13.18,2.65,2.10,-0.24,
05/25/2025,21:16:05.42,-1004.39,-28.81,-7.32,0.95,1.86,1.37,
05/25/2025,21:16:05.44,-989.26,-30.27,-7.32,1.28,2.87,-3.69,
05/25/2025,21:16:05.46,-995.12,-17.09,-12.21,1.49,1.62,-0.52,
05/25/2025,21:16:05.48,-991.21,-21.48,-8.30,-0.34,2.32,0.49,
05/25/2025,21:16:05.50,-999.02,-32.71,-9.28,1.55,3.45,-0.82,
05/25/2025,21:16:05.52,-987.30,-32.23,-7.32,1.49,-0.15,-2.07,
05/25/2025,21:16:05.54,-1004.88,-33.69,-16.60,1.07,-0.91,1.65,
05/25/2025,21:16:05.56,-1007.81,-26.37,-13.18,0.79,1.37,0.55,
05/25/2025,21:16:05.58,-996.58,-27.83,-3.91,0.24,1.62,-0.91,
05/25/2025,21:16:05.60,-997.56,-20.02,-11.72,1.31,0.24,3.45,
05/25/2025,21:16:05.62,-997.56,-28.81,-7.32,2.29,2.77,0.70,
05/25/2025,21:16:05.64,-986.82,-20.51,-12.21,-0.15,1.40,0.73,
05/25/2025,21:16:05.67,-996.58,-28.32,-12.70,0.79,1.10,2.10,
05/25/2025,21:16:05.69,-995.12,-6.35,-16.60,1.83,0.95,1.65,
05/25/2025,21:16:05.71,-1000.00,-28.81,-2.93,1.25,1.43,2.07,
05/25/2025,21:16:05.75,-1003.42,-35.16,-14.65,1.43,3.78,0.06,
05/25/2025,21:16:05.77,-984.86,-41.50,-10.74,2.99,3.35,-1.49,
05/25/2025,21:16:05.79,-892.58,26.37,68.85,6.31,0.73,-2.10,
05/25/2025,21:16:05.81,-994.14,-37.60,-17.09,-0.06,2.71,-0.79,
05/25/2025,21:16:05.83,-996.58,-32.71,0.00,-0.58,1.71,-1.55,
05/25/2025,21:16:05.85,-998.54,-20.02,-11.23,1.65,1.37,1.34,
05/25/2025,21:16:05.87,-992.19,-23.93,-6.84,-0.73,1.59,-0.15,
05/25/2025,21:16:05.89,-1005.37,-17.09,-7.32,2.41,-1.52,2.59,
05/25/2025,21:16:05.91,-1100.59,10.25,-11.23,-1.13,3.78,-2.87,
05/25/2025,21:16:05.93,-999.02,-4.88,-9.77,0.82,1.55,-3.57,
05/25/2025,21:16:05.96,-995.61,-32.71,-3.42,2.35,2.10,-1.49,
05/25/2025,21:16:05.98,-998.54,-22.95,-10.25,2.59,2.16,1.80,
05/25/2025,21:16:06.00,-993.65,-35.64,-10.74,0.15,1.80,-0.06,
05/25/2025,21:16:06.02,-992.19,-26.37,-2.44,1.86,2.90,-0.55,
05/25/2025,21:16:06.04,-1004.39,-25.39,-14.16,2.23,3.23,-3.51,
05/25/2025,21:16:06.06,-993.65,-25.39,-7.81,0.88,1.95,0.55,
05/25/2025,21:16:06.08,-1001.46,-27.34,3.42,1.68,2.80,-1.34,
05/25/2025,21:16:06.10,-1000.00,-46.39,-1.95,1.68,2.53,-0.12,
05/25/2025,21:16:06.12,-999.02,-36.13,-20.02,0.98,1.68,-0.30,
05/25/2025,21:16:06.14,-1002.44,-23.93,-0.98,1.59,1.46,0.24,
05/25/2025,21:16:06.16,-1001.46,-31.25,-9.28,1.65,2.96,2.47,
05/25/2025,21:16:06.18,-1003.42,-31.74,-1.46,0.21,2.68,-0.64,
05/25/2025,21:16:06.20,-1000.98,-18.07,-3.91,0.73,1.19,2.68,
05/25/2025,21:16:06.22,-997.07,-32.71,-6.35,1.28,2.62,-0.34,
05/25/2025,21:16:06.27,-991.70,-21.00,-13.18,2.47,2.01,-1.07,
05/25/2025,21:16:06.29,-992.68,-26.86,3.42,1.37,2.10,-3.63,
05/25/2025,21:16:06.31,-997.56,-37.11,-9.77,1.46,1.92,1.55,
05/25/2025,21:16:06.33,-1004.39,-23.44,-8.30,3.05,-0.43,-0.70,
05/25/2025,21:16:06.35,-1000.49,-30.27,-10.25,2.29,2.56,1.62,
05/25/2025,21:16:06.37,-1001.95,-27.34,-7.81,0.24,0.70,0.61,
05/25/2025,21:16:06.39,-988.77,-32.23,-7.81,1.43,1.77,-3.84,
05/25/2025,21:16:06.41,-1001.95,-22.46,-12.21,-1.40,1.74,-0.88,
05/25/2025,21:16:06.43,-1000.49,-12.21,-7.81,1.65,1.31,0.03,
05/25/2025,21:16:06.45,-1009.28,-22.95,-11.72,-1.07,2.04,-1.43,
05/25/2025,21:16:06.47,-1002.44,-31.25,-1.46,0.76,1.89,-0.43,
05/25/2025,21:16:06.49,-1005.86,-27.34,-13.18,3.69,2.10,-3.08,
05/25/2025,21:16:06.51,-1002.44,-35.64,-0.49,-0.24,2.23,-1.13,
05/25/2025,21:16:06.53,-1002.44,-20.51,-8.79,2.56,-0.18,-3.81,
05/25/2025,21:16:06.55,-1009.28,-22.95,4.39,2.80,0.95,1.04,
05/25/2025,21:16:06.57,-994.63,-25.88,-4.39,2.96,0.49,-0.95,
05/25/2025,21:16:06.59,-1007.81,-31.25,-6.84,1.07,1.74,-1.86,
05/25/2025,21:16:06.61,-996.09,-22.95,-5.86,0.70,3.08,-1.46,
05/25/2025,21:16:06.63,-996.09,-22.46,-16.11,0.03,1.68,-2.59,
05/25/2025,21:16:06.65,-1010.25,-18.55,-12.21,0.79,0.67,-2.16,
05/25/2025,21:16:06.67,-1001.95,-29.30,-12.21,1.01,0.43,-4.70,
05/25/2025,21:16:06.69,-1004.39,-19.53,-12.70,1.62,1.95,1.49,
05/25/2025,21:16:06.71,-1002.93,-19.53,-7.81,-0.70,0.12,-3.84,
05/25/2025,21:16:06.73,-1002.44,-30.27,-19.53,0.15,3.45,0.46,
05/25/2025,21:16:06.78,-995.12,-33.69,-1.95,1.77,2.96,2.80,
05/25/2025,21:16:06.80,-996.09,-31.74,-3.91,0.91,0.82,-1.10,
05/25/2025,21:16:06.82,-999.02,-32.23,-12.70,1.34,2.47,1.34,
05/25/2025,21:16:06.84,-992.19,-22.46,-0.49,1.68,-0.15,-2.87,
05/25/2025,21:16:06.86,-994.63,-17.58,-7.81,1.31,3.96,-0.21,
05/25/2025,21:16:06.88,-996.09,-27.83,0.49,1.28,2.59,-1.37,
05/25/2025,21:16:06.90,-994.14,-26.37,-13.67,0.46,0.09,0.00,
05/25/2025,21:16:06.92,-996.09,-29.79,-13.67,-1.10,0.64,-3.38,
05/25/2025,21:16:06.94,-1010.25,-24.41,0.00,0.61,4.36,3.57,
05/25/2025,21:16:06.96,-1002.44,-31.25,-8.30,-0.55,3.02,-0.73,
05/25/2025,21:16:06.98,-994.63,-16.60,6.35,-0.24,1.04,-0.18,
05/25/2025,21:16:07.00,-1006.35,-22.46,-8.79,0.30,2.56,0.91,
05/25/2025,21:16:07.02,-996.09,-30.76,-14.65,0.88,3.99,1.49,
05/25/2025,21:16:07.04,-1001.95,-13.67,-12.21,1.95,1.07,-0.55,
05/25/2025,21:16:07.06,-999.02,-27.34,-4.88,0.55,3.20,-2.77,
05/25/2025,21:16:07.08,-985.84,-36.62,-6.35,1.25,1.10,-6.37,
05/25/2025,21:16:07.10,-994.14,-27.34,-0.49,1.25,4.88,1.98,
05/25/2025,21:16:07.12,-999.51,-24.90,-10.25,2.04,3.63,1.16,
05/25/2025,21:16:07.14,-993.16,-41.02,-19.04,1.49,3.69,0.18,
05/25/2025,21:16:07.16,-1011.72,-29.30,-9.77,0.12,3.32,-1.37,
05/25/2025,21:16:07.18,-997.56,-33.69,-11.23,1.34,1.98,-4.70,
05/25/2025,21:16:07.20,-1001.46,-21.00,-4.39,0.70,2.29,-0.21,
05/25/2025,21:16:07.22,-989.75,-26.86,-19.53,0.21,3.48,-1.92,
05/25/2025,21:16:07.24,-997.56,-21.48,-13.18,1.86,3.60,-2.84,
05/25/2025,21:16:07.29,-998.05,-39.06,-10.25,2.44,1.74,0.24,
05/25/2025,21:16:07.31,-998.54,-29.30,-18.55,2.01,2.29,-1.04,
05/25/2025,21:16:07.33,-989.26,-17.58,-18.55,1.77,2.13,-2.32,
05/25/2025,21:16:07.35,-1002.44,-33.20,-15.14,1.52,2.77,1.59,
05/25/2025,21:16:07.37,-999.51,-20.02,-1.46,0.40,2.13,-1.83,
05/25/2025,21:16:07.39,-984.86,-15.14,-13.67,2.10,1.74,1.13,
05/25/2025,21:16:07.41,-993.16,-34.67,-6.84,1.13,0.64,-0.21,
05/25/2025,21:16:07.43,-1000.00,-18.55,-0.98,1.28,2.56,0.67,
05/25/2025,21:16:07.45,-1000.98,-25.88,2.93,0.15,2.65,-2.53,
05/25/2025,21:16:07.47,-997.07,-29.30,-11.23,-0.67,3.11,-0.95,
05/25/2025,21:16:07.49,-999.51,-33.20,-17.09,-0.12,1.49,0.85,
05/25/2025,21:16:07.51,-997.07,-31.74,-14.16,2.59,3.38,-0.58,
05/25/2025,21:16:07.53,-1005.86,-19.04,-14.65,-0.30,1.65,-0.18,
05/25/2025,21:16:07.55,-997.56,-22.46,-5.37,-0.52,1.49,1.62,
05/25/2025,21:16:07.57,-1001.46,-20.51,-9.77,-0.73,4.36,1.62,
05/25/2025,21:16:07.59,-999.02,-32.23,-2.93,0.30,3.87,-1.31,
05/25/2025,21:16:07.61,-998.54,-31.74,3.42,0.64,3.51,-1.68,
05/25/2025,21:16:07.63,-994.14,-27.34,-2.93,-0.30,2.29,-1.07,
05/25/2025,21:16:07.65,-990.72,-17.58,-8.79,2.35,3.14,1.19,
05/25/2025,21:16:07.67,-993.65,-23.44,-7.81,0.46,3.26,0.76,
05/25/2025,21:16:07.69,-1004.88,-29.30,-11.72,1.13,3.84,-3.05,
05/25/2025,21:16:07.71,-1006.35,-23.44,-4.39,0.79,3.05,-3.14,
05/25/2025,21:16:07.73,-994.63,-20.02,-18.55,1.49,1.65,-0.61,
05/25/2025,21:16:07.75,-1001.95,-34.18,-9.28,0.30,2.26,0.12,
05/25/2025,21:16:07.82,-1008.79,-31.74,-16.11,-1.01,1.22,-0.73,
05/25/2025,21:16:07.84,-998.54,-29.30,-18.55,1.74,1.16,-3.32,
05/25/2025,21:16:07.86,-994.63,-24.41,-16.11,6.28,3.75,-2.87,
05/25/2025,21:16:07.88,-991.70,-18.55,-15.62,-1.13,1.31,1.59,
05/25/2025,21:16:07.90,-1004.88,-30.76,-9.77,2.62,1.46,0.40,
05/25/2025,21:16:07.92,-1007.32,-29.79,-10.74,8.81,5.76,4.15,
05/25/2025,21:16:07.94,-997.07,-26.37,-15.62,0.09,1.83,-1.62,
05/25/2025,21:16:07.96,-1000.00,-25.88,-24.90,0.12,1.77,-1.43,
05/25/2025,21:16:07.98,-989.75,-32.71,-10.25,1.71,3.90,-1.62,
05/25/2025,21:16:08.00,-994.14,-25.39,-25.88,1.89,1.01,0.64,
05/25/2025,21:16:08.02,-996.58,-31.74,-20.51,-12.44,-8.32,-3.99,
05/25/2025,21:16:08.04,-1007.32,-35.16,-10.74,1.16,0.91,-1.68,
05/25/2025,21:16:08.06,-1003.91,-31.74,-25.39,2.10,2.23,0.24,
05/25/2025,21:16:08.08,-1004.39,-26.86,-19.53,-1.13,0.30,-1.19,
05/25/2025,21:16:08.10,-998.05,-24.41,-18.07,0.82,1.10,-1.95,
05/25/2025,21:16:08.12,-1006.35,-39.55,-17.58,2.74,1.31,-1.77,
05/25/2025,21:16:08.14,-997.07,-21.97,-11.23,1.86,1.71,-0.55,
05/25/2025,21:16:08.16,-1010.74,-25.39,-15.14,0.98,1.86,-3.05,
05/25/2025,21:16:08.18,-1003.91,-33.69,-18.07,2.23,3.60,-1.13,
05/25/2025,21:16:08.20,-1002.44,-27.83,-11.23,1.86,3.08,-2.20,
05/25/2025,21:16:08.22,-999.02,-30.27,-13.18,2.23,3.66,-1.40,
05/25/2025,21:16:08.24,-1000.00,-28.32,-10.74,0.73,3.14,-1.01,
05/25/2025,21:16:08.26,-989.75,-30.76,-14.16,0.55,2.20,0.06,
05/25/2025,21:16:08.31,-1002.93,-17.58,-17.58,1.65,1.28,-1.98,
05/25/2025,21:16:08.33,-1004.88,-22.46,-13.67,0.21,2.99,0.18,
05/25/2025,21:16:08.35,-993.65,-14.65,-17.58,1.95,1.43,-4.39,
05/25/2025,21:16:08.37,-1002.44,-18.07,-23.44,2.23,1.80,-2.50,
05/25/2025,21:16:08.39,-995.61,-23.93,-20.02,-0.30,0.67,-0.18,
05/25/2025,21:16:08.41,-992.19,-19.04,-16.60,1.52,2.29,-1.71,
05/25/2025,21:16:08.43,-1001.95,-32.23,-6.84,0.18,0.98,1.52,
05/25/2025,21:16:08.45,-1001.95,-27.83,-17.09,0.15,0.88,-3.11,
05/25/2025,21:16:08.47,-998.54,-16.60,-20.02,0.30,1.34,-2.68,
05/25/2025,21:16:08.49,-998.05,-22.46,-8.79,2.32,2.38,-4.45,
05/25/2025,21:16:08.51,-1000.00,-32.23,-21.00,3.17,1.37,-1.10,
05/25/2025,21:16:08.53,-998.54,-21.00,-18.55,2.04,2.80,-1.10,
05/25/2025,21:16:08.55,-1000.49,-27.83,-11.23,0.98,3.08,-1.43,
05/25/2025,21:16:08.57,-1000.98,-19.04,-5.37,2.71,3.45,1.49,
05/25/2025,21:16:08.59,-995.61,-18.07,-17.58,0.15,3.81,1.31,
05/25/2025,21:16:08.61,-1001.46,-28.32,-8.79,0.27,0.95,0.55,
05/25/2025,21:16:08.63,-991.70,-31.25,-20.02,2.41,2.84,-1.98,
05/25/2025,21:16:08.65,-992.68,-26.37,-19.04,0.49,2.62,1.55,
05/25/2025,21:16:08.67,-999.02,-26.37,-13.67,0.73,2.87,-0.95,
05/25/2025,21:16:08.69,-1000.98,-24.90,-23.93,0.24,5.15,0.18,
05/25/2025,21:16:08.71,-1001.46,-33.20,-17.58,1.22,2.77,-0.40,
05/25/2025,21:16:08.73,-1003.91,-30.27,-12.21,1.86,0.85,0.85,
05/25/2025,21:16:08.75,-1000.98,-11.23,-24.90,2.56,3.99,-0.21,
05/25/2025,21:16:08.77,-997.07,-25.88,-16.11,2.04,0.91,-1.40,
05/25/2025,21:16:08.82,-986.82,-18.07,-27.34,1.59,1.95,1.89,
05/25/2025,21:16:08.84,-1015.14,-25.88,-8.79,2.77,2.47,2.44,
05/25/2025,21:16:08.86,-998.54,-24.41,-29.30,1.13,-0.76,-1.62,
05/25/2025,21:16:08.88,-992.68,-26.37,-23.93,3.38,1.68,1.07,
05/25/2025,21:16:08.90,-1006.84,-26.37,-19.53,0.82,0.76,0.15,
05/25/2025,21:16:08.92,-995.12,-27.83,-20.51,2.10,1.95,-1.46,
05/25/2025,21:16:08.94,-1009.77,-26.86,-24.90,1.95,-1.55,1.43,
05/25/2025,21:16:08.96,-985.35,-17.58,-16.60,1.31,0.24,0.88,
05/25/2025,21:16:08.98,-991.70,-32.23,-22.46,2.23,3.11,-1.31,
05/25/2025,21:16:09.00,-985.35,-27.83,-10.74,0.46,2.20,0.27,
05/25/2025,21:16:09.02,-993.65,-31.25,-8.79,-0.88,1.65,0.12,
05/25/2025,21:16:09.04,-994.14,-28.81,-19.53,1.34,-0.27,-0.82,
05/25/2025,21:16:09.06,-1005.37,-16.60,-20.02,-0.27,-1.13,1.01,
05/25/2025,21:16:09.08,-1005.37,-34.18,-8.30,2.29,1.86,0.40,
05/25/2025,21:16:09.10,-1001.95,-31.25,-15.62,2.93,1.49,2.16,
05/25/2025,21:16:09.12,-1002.93,-37.11,-17.58,2.10,1.04,-0.37,
05/25/2025,21:16:09.14,-994.63,-27.34,-15.14,2.44,1.98,-1.01,
05/25/2025,21:16:09.16,-1002.93,-16.60,-4.88,0.06,1.01,-2.41,
05/25/2025,21:16:09.18,-1000.00,-31.25,-19.53,0.46,2.32,2.68,
05/25/2025,21:16:09.20,-991.21,-21.48,-17.09,1.25,-0.73,-3.29,
05/25/2025,21:16:09.22,-989.75,-27.34,-19.04,3.20,2.59,0.98,
05/25/2025,21:16:09.24,-1001.95,-17.09,-17.09,1.83,1.28,0.64,
05/25/2025,21:16:09.26,-999.51,-26.86,-24.41,0.55,1.31,-0.95,
05/25/2025,21:16:09.28,-1000.00,-32.71,-17.09,1.40,2.38,1.31,
05/25/2025,21:16:09.33,-1000.00,-30.27,-13.18,0.34,2.13,-2.35,
05/25/2025,21:16:09.35,-1003.91,-22.95,-19.04,3.90,1.62,-1.89,
05/25/2025,21:16:09.37,-1008.79,-15.14,-9.77,-3.96,0.98,0.91,
05/25/2025,21:16:09.39,-999.02,-28.32,-4.39,1.01,0.64,0.46,
05/25/2025,21:16:09.41,-1003.91,-31.25,-14.65,2.47,1.74,2.50,
05/25/2025,21:16:09.43,-1006.35,-27.34,-14.65,0.49,-0.95,-0.91,
05/25/2025,21:16:09.45,-1005.86,-28.81,-13.67,0.15,1.65,-0.09,
05/25/2025,21:16:09.47,-997.56,-21.48,-13.18,0.18,1.19,-0.03,
05/25/2025,21:16:09.49,-1005.37,-31.74,-28.81,0.18,3.08,-2.68,
05/25/2025,21:16:09.51,-1003.42,-25.88,-13.67,0.64,0.58,3.72,
05/25/2025,21:16:09.53,-1007.81,-26.86,-15.62,1.46,3.96,1.04,
05/25/2025,21:16:09.55,-995.12,-18.07,-12.70,1.07,2.50,-1.16,
05/25/2025,21:16:09.57,-1006.84,-22.95,-13.18,1.65,-0.27,0.00,
05/25/2025,21:16:09.59,-991.70,-21.97,-12.21,4.97,0.30,1.07,
05/25/2025,21:16:09.61,-1000.49,-24.90,-8.30,0.09,0.52,-4.42,
05/25/2025,21:16:09.63,-1004.39,-14.16,-18.55,1.95,0.37,-0.55,
05/25/2025,21:16:09.65,-1005.37,-35.64,-9.28,1.13,3.90,0.40,
05/25/2025,21:16:09.67,-989.26,-25.88,-19.04,4.33,1.10,1.25,
05/25/2025,21:16:09.69,-993.16,-22.95,-15.62,0.79,0.55,0.06,
05/25/2025,21:16:09.71,-1000.00,-18.07,-8.30,1.55,0.95,-1.25,
05/25/2025,21:16:09.73,-990.72,-30.76,-8.79,0.15,3.54,0.49,
05/25/2025,21:16:09.75,-995.61,-27.34,-19.53,1.34,2.84,-2.74,
05/25/2025,21:16:09.77,-998.05,-17.58,-17.58,1.34,4.60,-0.76,
05/25/2025,21:16:09.79,-988.28,-32.71,-9.28,1.68,2.68,-0.58,
05/25/2025,21:16:09.84,-1000.49,-20.51,-12.70,0.49,0.34,-0.52,
05/25/2025,21:16:09.86,-999.02,-15.62,-20.02,2.38,1.83,2.59,
05/25/2025,21:16:09.88,-996.58,-27.83,-14.16,0.98,1.74,-0.73,
05/25/2025,21:16:09.90,-1001.46,-31.25,-16.60,1.13,2.32,-0.21,
05/25/2025,21:16:09.92,-991.21,-37.60,-8.30,1.16,3.96,0.03,
05/25/2025,21:16:09.94,-996.58,-19.04,-17.58,1.40,1.19,0.76,
05/25/2025,21:16:09.96,-996.09,-32.23,-1.46,1.04,2.44,2.26,
05/25/2025,21:16:09.98,-1002.93,-40.04,-20.51,0.70,1.04,-0.91,
05/25/2025,21:16:10.00,-998.05,-29.79,-9.77,3.84,2.80,0.21,
05/25/2025,21:16:10.02,-995.12,-19.04,-13.18,1.74,1.19,-0.88,
05/25/2025,21:16:10.04,-1002.44,-17.09,-22.46,3.41,0.91,0.58,
05/25/2025,21:16:25.90,-192.38,-417.97,971.19,4.85,-15.18,-43.14,
05/25/2025,21:16:25.96,-57.13,-396.97,868.16,24.82,-10.34,7.41,
05/25/2025,21:16:25.98,-94.73,-391.11,934.57,44.48,-11.89,15.27,
05/25/2025,21:16:26.00,-60.06,-349.12,1010.25,38.75,-20.34,21.07,
05/25/2025,21:16:26.02,-68.85,-331.05,937.01,41.28,-18.90,24.85,
05/25/2025,21:16:26.04,-53.71,-325.20,1000.98,24.45,-3.78,22.90,
05/25/2025,21:16:26.06,-57.62,-327.15,1041.02,4.54,-17.41,36.62,
05/25/2025,21:16:26.08,-39.06,-322.27,969.73,6.37,-21.83,34.97,
05/25/2025,21:16:26.10,-42.48,-321.29,942.38,14.18,-14.45,42.87,
05/25/2025,21:16:26.12,-143.07,-294.43,1387.21,-0.73,-61.98,48.63,
05/25/2025,21:16:26.14,-4.88,-261.23,612.30,-43.87,-97.41,32.16,
05/25/2025,21:16:26.16,78.12,-268.55,386.23,11.74,-54.36,23.78,
05/25/2025,21:16:26.18,-58.11,-335.94,1029.30,26.28,-19.88,24.21,
05/25/2025,21:16:26.20,-133.30,-392.09,1332.52,12.59,-74.63,27.80,
05/25/2025,21:16:26.22,-26.37,-332.03,1224.61,11.46,-39.45,33.84,
05/25/2025,21:16:26.24,14.65,-321.78,962.89,16.68,-11.89,25.79,
05/25/2025,21:16:26.26,7.32,-325.68,917.48,5.55,-20.73,27.84,
05/25/2025,21:16:26.28,-14.16,-324.71,911.62,12.10,-18.66,14.45,
05/25/2025,21:16:26.30,24.90,-323.24,992.68,4.48,-22.68,4.05,
05/25/2025,21:16:26.32,41.50,-298.83,949.71,0.95,-15.91,-5.52,
05/25/2025,21:16:26.34,33.20,-297.85,980.47,4.73,-20.73,-7.50,
05/25/2025,21:16:26.36,70.80,-300.78,951.17,-0.79,-24.15,-5.15,
05/25/2025,21:16:26.38,64.45,-303.71,942.38,-9.42,-12.93,-6.77,
05/25/2025,21:16:26.40,56.64,-311.52,923.34,-8.35,-5.46,-4.09,
05/25/2025,21:16:26.42,84.96,-301.76,938.48,-1.83,-7.96,-4.79,
05/25/2025,21:16:26.47,88.87,-314.94,933.59,-0.27,0.61,-2.93,
05/25/2025,21:16:26.49,83.01,-304.20,980.47,-1.89,8.11,1.74,
05/25/2025,21:16:26.51,84.47,-312.99,941.89,-0.76,5.64,3.48,
05/25/2025,21:16:26.53,105.47,-301.76,962.40,-4.94,5.12,-3.11,
05/25/2025,21:16:26.55,88.38,-319.82,952.64,-7.10,0.09,-1.59,
05/25/2025,21:16:26.57,88.87,-307.62,941.89,-2.41,7.84,0.64,
05/25/2025,21:16:26.59,90.82,-320.80,964.36,3.05,8.78,-1.31,
05/25/2025,21:16:26.61,74.71,-312.99,946.29,-1.34,0.58,2.35,
05/25/2025,21:16:26.63,81.05,-320.31,934.57,-2.41,-5.82,2.23,
05/25/2025,21:16:26.65,42.97,-316.41,928.22,0.91,7.07,-3.90,
05/25/2025,21:16:26.67,74.22,-326.17,963.87,8.11,2.99,-1.28,
05/25/2025,21:16:26.69,85.94,-299.80,935.06,6.59,4.85,-1.95,
05/25/2025,21:16:26.71,72.75,-314.94,941.89,2.07,5.18,-4.60,
05/25/2025,21:16:26.73,81.54,-312.50,942.87,0.30,-4.02,-3.29,
05/25/2025,21:16:26.75,94.73,-318.36,958.98,0.27,-2.38,0.82,
05/25/2025,21:16:26.77,65.43,-306.64,916.99,3.23,0.21,7.74,
05/25/2025,21:16:26.79,84.47,-320.31,966.80,0.70,0.85,9.18,
05/25/2025,21:16:26.81,67.87,-318.36,942.38,0.64,7.16,2.29,
05/25/2025,21:16:26.83,74.71,-323.73,953.61,4.88,2.01,3.84,
05/25/2025,21:16:26.85,95.21,-314.45,957.52,1.07,-5.03,7.62,
05/25/2025,21:16:26.87,73.73,-315.92,946.78,3.29,-1.13,6.65,
05/25/2025,21:16:26.89,85.94,-321.29,949.71,1.49,-4.79,7.13,
05/25/2025,21:16:26.91,76.17,-312.01,936.52,2.80,-7.26,7.07,
05/25/2025,21:16:26.93,96.19,-319.34,950.68,1.01,-2.59,6.68,
05/25/2025,21:16:26.98,84.96,-304.20,962.40,0.95,12.32,18.78,
05/25/2025,21:16:27.00,62.99,-348.63,949.71,-2.35,18.02,29.45,
05/25/2025,21:16:27.02,42.97,-362.79,940.92,-2.04,23.96,41.31,
05/25/2025,21:16:27.04,-24.41,-346.19,892.58,-5.18,27.77,49.30,
05/25/2025,21:16:27.06,6.84,-331.54,963.38,-10.34,14.82,29.54,
05/25/2025,21:16:27.08,34.67,-324.22,949.71,-20.61,2.84,12.96,
05/25/2025,21:16:27.10,55.18,-316.41,952.15,-20.40,-9.85,17.50,
05/25/2025,21:16:27.12,35.64,-300.78,923.83,-16.37,-0.24,12.96,
05/25/2025,21:16:27.14,31.25,-333.01,949.22,-16.01,0.15,9.85,
05/25/2025,21:16:27.16,15.14,-354.00,939.45,-12.23,2.38,4.09,
05/25/2025,21:16:27.18,32.71,-374.51,953.12,-10.52,-0.18,-0.73,
05/25/2025,21:16:27.20,50.29,-369.14,961.43,-10.40,-6.89,-1.89,
05/25/2025,21:16:27.22,29.79,-365.23,914.55,-10.40,-7.35,0.37,
05/25/2025,21:16:27.24,28.81,-384.77,915.53,2.04,1.04,-9.12,
05/25/2025,21:16:27.26,13.18,-397.46,924.32,4.30,3.29,-10.52,
05/25/2025,21:16:27.28,28.81,-377.93,958.98,3.23,-7.32,-12.35,
05/25/2025,21:16:27.30,61.04,-372.56,951.66,5.00,-16.65,-15.27,
05/25/2025,21:16:27.32,40.53,-373.54,915.04,4.54,-8.93,-18.32,
05/25/2025,21:16:27.34,15.14,-384.28,926.76,6.37,7.13,-27.59,
05/25/2025,21:16:27.36,18.07,-387.21,940.43,-3.38,28.81,-37.71,
05/25/2025,21:16:27.38,-10.74,-403.32,956.05,-6.65,35.09,-65.15,
05/25/2025,21:16:27.40,-35.64,-370.61,938.48,-19.66,31.34,-96.13,
05/25/2025,21:16:27.42,-78.12,-344.24,886.72,-32.99,77.47,-191.77,
05/25/2025,21:16:27.44,146.97,-249.51,1033.69,-56.31,74.79,-213.48,
05/25/2025,21:16:27.49,108.40,-496.09,893.07,-46.49,64.76,-172.38,
05/25/2025,21:16:27.51,173.34,-433.11,820.80,-42.65,145.43,-144.15,
05/25/2025,21:16:27.53,-40.53,-550.29,564.45,-6.34,228.72,-152.53,
05/25/2025,21:16:27.55,23.44,-377.44,1052.73,-14.94,331.19,-167.10,
05/25/2025,21:16:27.57,-27.83,-501.46,982.42,-59.24,386.92,-150.30,
05/25/2025,21:16:27.59,-261.23,-740.23,1042.48,-123.20,481.49,-156.34,
05/25/2025,21:16:27.61,-252.44,-862.79,894.04,-171.37,296.98,-89.88,
05/25/2025,21:16:27.63,-271.00,-588.87,782.23,-233.05,311.65,-73.93,
05/25/2025,21:16:27.65,-398.44,-485.35,512.21,-282.77,477.26,-54.76,
05/25/2025,21:16:27.67,-532.23,-524.90,696.78,-379.27,346.95,-119.15,
05/25/2025,21:16:27.69,-378.91,-466.80,193.85,-454.48,436.01,-215.37,
05/25/2025,21:16:27.71,-599.12,-969.73,-154.79,-389.15,515.85,-206.74,
05/25/2025,21:16:27.73,-454.10,-883.79,-62.01,-221.04,419.76,-171.31,
05/25/2025,21:16:27.75,-304.20,-952.64,158.69,-220.79,154.79,-149.27,
05/25/2025,21:16:27.77,-149.90,-865.72,-298.83,-200.91,165.91,-98.14,
05/25/2025,21:16:27.79,423.34,-773.44,-627.44,-174.27,187.87,-10.27,
05/25/2025,21:16:27.81,-89.84,-1007.32,-1080.08,-159.48,241.19,89.39,
05/25/2025,21:16:27.83,-200.20,-892.58,-812.50,-126.10,279.15,7.50,
05/25/2025,21:16:27.85,52.25,-826.66,-764.16,-76.40,226.83,33.20,
05/25/2025,21:16:27.87,-190.92,-881.84,-662.11,-37.32,211.16,53.75,
05/25/2025,21:16:27.89,-286.13,-875.49,-669.43,-14.36,153.11,26.86,
05/25/2025,21:16:27.91,-33.20,-794.92,-535.64,-5.40,99.63,3.90,
05/25/2025,21:16:27.93,83.98,-720.70,-462.40,-28.45,56.71,10.00,
05/25/2025,21:16:27.95,121.58,-658.69,-363.77,-51.43,59.97,6.10,
05/25/2025,21:16:28.00,-557.13,-868.16,-197.75,-137.20,-1.31,3.05,
05/25/2025,21:16:28.02,66.89,-838.87,-862.79,-107.99,-8.93,-78.93,
05/25/2025,21:16:28.04,365.72,-655.76,-840.33,-83.17,-25.55,3.63,
05/25/2025,21:16:28.06,-42.48,-726.07,-881.35,-23.20,-58.84,40.03,
05/25/2025,21:16:28.08,73.24,-653.32,-846.19,-24.94,-25.76,38.17,
05/25/2025,21:16:28.10,-18.55,-656.25,-826.66,-31.19,-16.07,38.93,
05/25/2025,21:16:28.12,-130.37,-648.93,-834.96,-44.27,6.13,23.72,
05/25/2025,21:16:28.14,-59.08,-625.98,-758.30,-57.62,-25.49,11.83,
05/25/2025,21:16:28.16,-41.50,-585.94,-785.16,-85.40,-52.32,19.91,
05/25/2025,21:16:28.18,-84.47,-573.73,-897.46,-115.58,-60.58,32.65,
05/25/2025,21:16:28.20,-107.91,-536.62,-893.55,-119.15,-68.66,35.58,
05/25/2025,21:16:28.22,-108.89,-523.93,-934.57,-95.37,-45.24,37.50,
05/25/2025,21:16:28.24,-136.72,-502.93,-883.79,-83.38,-44.88,29.12,
05/25/2025,21:16:28.26,-167.97,-455.57,-964.84,-73.11,-46.86,21.22,
05/25/2025,21:16:28.28,-235.84,-463.38,-909.18,-66.68,-49.85,29.88,
05/25/2025,21:16:28.30,-236.33,-459.96,-937.99,-56.25,-36.77,23.41,
05/25/2025,21:16:28.32,-180.18,-396.97,-1047.36,-39.54,19.88,10.88,
05/25/2025,21:16:28.34,-196.29,-381.84,-914.55,-20.76,54.02,4.94,
05/25/2025,21:16:28.36,-230.47,-416.02,-918.95,-10.34,45.12,2.47,
05/25/2025,21:16:28.38,-194.34,-401.86,-955.08,-13.63,13.57,8.96,
05/25/2025,21:16:28.40,-173.34,-396.48,-959.96,-13.81,8.96,12.47,
05/25/2025,21:16:28.42,-129.88,-386.72,-979.00,-6.46,15.91,4.33,
05/25/2025,21:16:28.44,-159.18,-402.34,-934.57,5.76,18.66,10.18,
05/25/2025,21:16:28.50,-152.83,-390.14,-907.23,12.96,-11.25,-0.88,
05/25/2025,21:16:28.52,-137.21,-390.62,-952.64,18.69,3.02,-1.89,
05/25/2025,21:16:28.54,-127.93,-387.70,-944.82,14.66,4.82,-5.43,
05/25/2025,21:16:28.56,-147.46,-390.62,-954.59,10.85,9.42,0.15,
05/25/2025,21:16:28.58,-164.06,-413.57,-932.62,5.21,5.37,3.54,
05/25/2025,21:16:28.60,-140.14,-389.65,-935.55,6.43,11.25,6.22,
05/25/2025,21:16:28.62,-128.42,-404.30,-929.69,1.46,20.12,1.59,
05/25/2025,21:16:28.64,-144.04,-423.83,-932.62,3.05,28.02,0.91,
05/25/2025,21:16:28.66,-170.90,-434.08,-936.52,1.68,26.40,3.69,
05/25/2025,21:16:28.68,-161.62,-446.78,-940.43,0.91,23.75,-0.03,
05/25/2025,21:16:28.70,-161.62,-410.16,-929.69,3.35,18.23,-21.37,
05/25/2025,21:16:28.72,-101.56,-408.20,-876.95,3.32,21.68,-31.86,
05/25/2025,21:16:28.74,-109.38,-400.88,-892.58,-2.50,1.77,-36.52,
05/25/2025,21:16:28.76,-92.77,-400.88,-920.41,-8.11,-6.95,-33.57,
05/25/2025,21:16:28.78,-18.55,-359.86,-911.62,-11.49,1.65,-27.53,
05/25/2025,21:16:28.80,-84.47,-365.72,-896.00,-15.58,-0.12,-22.87,
05/25/2025,21:16:28.82,-80.57,-403.81,-951.17,-25.15,-24.33,-31.46,
05/25/2025,21:16:28.84,-74.71,-375.98,-986.33,-30.06,-11.83,-28.63,
05/25/2025,21:16:28.86,-100.59,-363.77,-940.43,-33.11,-16.68,-40.70,
05/25/2025,21:16:28.88,-114.26,-386.72,-954.10,-33.29,-33.11,-33.90,
05/25/2025,21:16:28.90,-49.80,-373.05,-979.49,-27.99,-43.26,-9.82,
05/25/2025,21:16:28.92,-101.07,-354.98,-979.98,-23.63,-46.98,13.69,
05/25/2025,21:16:28.95,-173.34,-345.70,-978.52,-15.12,-63.26,15.00,
05/25/2025,21:16:28.97,-106.45,-306.15,-953.61,-19.57,-64.12,11.95,
05/25/2025,21:16:29.01,-202.15,-274.41,-910.64,-35.49,-77.53,41.95,
05/25/2025,21:16:29.03,-286.62,-256.84,-962.89,-37.29,-71.49,44.36,
05/25/2025,21:16:29.05,-260.74,-238.77,-1028.81,-32.23,-39.39,27.10,
05/25/2025,21:16:29.07,-322.27,-247.07,-1023.44,-22.77,-9.05,19.15,
05/25/2025,21:16:29.09,-342.29,-248.05,-1007.81,-4.66,3.54,9.30,
05/25/2025,21:16:29.11,-278.81,-229.98,-1019.04,10.79,25.21,6.71,
05/25/2025,21:16:29.13,-315.92,-260.25,-969.24,22.71,27.53,-0.34,
05/25/2025,21:16:29.15,-289.55,-263.18,-1001.46,22.16,33.75,-11.07,
05/25/2025,21:16:29.17,-255.37,-273.93,-989.26,22.96,38.08,-9.70,
05/25/2025,21:16:29.20,-277.34,-289.55,-975.10,18.72,31.31,-4.21,
05/25/2025,21:16:29.22,-250.49,-279.30,-973.63,15.03,28.63,-6.22,
05/25/2025,21:16:29.24,-231.93,-283.69,-948.73,13.11,26.25,-3.54,
05/25/2025,21:16:29.26,-229.49,-312.01,-962.40,15.30,13.14,4.51,
05/25/2025,21:16:29.28,-219.24,-303.71,-955.08,17.23,1.86,13.66,
05/25/2025,21:16:29.30,-200.20,-302.73,-931.15,15.46,-2.20,17.93,
05/25/2025,21:16:29.32,-216.31,-303.71,-935.55,15.24,-4.60,20.82,
05/25/2025,21:16:29.34,-206.05,-300.29,-954.10,17.10,4.82,17.84,
05/25/2025,21:16:29.36,-245.12,-321.78,-972.17,14.30,7.77,15.46,
05/25/2025,21:16:29.38,-212.40,-290.04,-918.95,11.71,11.83,12.38,
05/25/2025,21:16:29.40,-176.27,-375.98,-948.73,2.99,1.77,28.69,
05/25/2025,21:16:29.42,-192.87,-306.15,-926.27,15.30,19.30,42.29,
05/25/2025,21:16:29.44,-241.70,-314.94,-914.06,13.29,18.87,42.65,
05/25/2025,21:16:29.46,-242.68,-297.36,-926.27,2.74,10.85,17.41,
05/25/2025,21:16:29.48,-232.91,-297.36,-970.70,1.46,13.14,5.82,
05/25/2025,21:16:29.53,-232.42,-332.03,-963.87,16.52,23.32,-19.94,
05/25/2025,21:16:29.55,-203.12,-333.98,-969.24,20.64,16.55,-14.94,
05/25/2025,21:16:29.57,-186.04,-330.57,-961.43,19.66,16.22,-4.57,
05/25/2025,21:16:29.59,-189.94,-338.87,-947.75,13.81,10.00,-3.45,
05/25/2025,21:16:29.61,-194.82,-337.89,-937.01,10.24,7.90,-5.21,
05/25/2025,21:16:29.63,-187.01,-330.57,-956.05,6.25,11.37,-9.88,
05/25/2025,21:16:29.65,-173.83,-332.03,-946.78,0.82,6.31,-1.28,
05/25/2025,21:16:29.67,-182.13,-337.89,-933.59,-5.37,2.23,-1.01,
05/25/2025,21:16:29.69,-152.34,-338.87,-946.29,-7.44,5.79,0.24,
05/25/2025,21:16:29.71,-166.99,-353.03,-938.96,-3.32,2.87,3.41,
05/25/2025,21:16:29.73,-176.76,-358.89,-940.92,1.31,1.49,2.59,
05/25/2025,21:16:29.75,-177.73,-347.66,-945.31,8.14,-3.35,1.68,
05/25/2025,21:16:29.77,-188.96,-360.35,-951.66,11.89,-2.90,-1.01,
05/25/2025,21:16:29.79,-181.15,-345.70,-960.94,11.77,2.04,-3.63,
05/25/2025,21:16:29.81,-180.66,-356.93,-950.20,11.92,-0.85,-0.18,
05/25/2025,21:16:29.83,-172.36,-359.86,-950.68,9.51,-2.35,3.38,
05/25/2025,21:16:29.85,-172.85,-354.00,-932.62,6.13,-7.53,2.90,
05/25/2025,21:16:29.87,-174.80,-346.19,-933.11,1.95,-10.79,10.82,
05/25/2025,21:16:29.89,-186.52,-359.86,-936.52,2.62,-14.05,15.91,
05/25/2025,21:16:29.91,-211.91,-342.77,-939.45,2.13,-5.34,8.11,
05/25/2025,21:16:29.93,-195.31,-354.00,-918.95,7.20,-6.46,4.70,
05/25/2025,21:16:29.95,-201.17,-374.51,-899.90,37.26,-10.40,6.59,
05/25/2025,21:16:29.97,-196.29,-376.95,-917.97,40.73,-10.21,5.43,
05/25/2025,21:16:29.99,-199.71,-378.42,-938.48,33.26,-13.35,9.82,
05/25/2025,21:16:30.04,-256.84,-388.67,-901.86,9.09,-21.13,14.42,
05/25/2025,21:16:30.06,-263.18,-394.04,-927.25,11.04,-12.99,1.34,
05/25/2025,21:16:30.08,-269.04,-414.55,-940.92,10.70,-3.48,0.15,
05/25/2025,21:16:30.10,-287.11,-409.67,-931.15,11.52,2.99,1.28,
05/25/2025,21:16:30.12,-281.25,-411.62,-929.69,10.37,1.46,-3.11,
05/25/2025,21:16:30.14,-270.51,-430.18,-932.13,13.20,9.39,-14.33,
05/25/2025,21:16:30.16,-241.21,-431.64,-936.52,21.40,16.62,-19.39,
05/25/2025,21:16:30.18,-237.30,-418.46,-900.88,18.20,10.85,-11.13,
05/25/2025,21:16:30.20,-254.39,-428.22,-886.72,11.22,-7.01,-8.90,
05/25/2025,21:16:30.22,-238.77,-437.99,-888.18,3.69,-19.21,-17.90,
05/25/2025,21:16:30.24,-205.57,-418.95,-806.15,0.18,-48.51,-15.24,
05/25/2025,21:16:30.26,-213.87,-367.68,-790.53,-15.37,-159.45,-0.30,
05/25/2025,21:16:30.28,380.37,-457.52,-1124.51,-57.56,-449.18,-0.18,
05/25/2025,21:16:30.30,-2635.74,-896.48,-3745.61,-212.23,-999.02,-92.01,
05/25/2025,21:16:30.32,-336.91,-198.24,-240.23,167.16,-704.09,-200.21,
05/25/2025,21:16:30.34,-242.19,-380.86,-138.18,117.47,-513.23,-82.99,
05/25/2025,21:16:30.36,-717.77,-575.20,188.96,93.54,-463.84,-27.65,
05/25/2025,21:16:30.38,-685.55,-580.08,144.04,46.25,-342.96,-18.14,
05/25/2025,21:16:30.40,-598.14,-510.74,71.78,63.63,-342.20,11.40,
05/25/2025,21:16:30.42,-763.67,-562.99,448.24,86.28,-309.33,33.90,
05/25/2025,21:16:30.44,-962.89,-436.52,541.02,44.27,-284.27,40.55,
05/25/2025,21:16:30.46,-889.16,-480.47,339.84,95.79,-301.01,10.49,
05/25/2025,21:16:30.48,-774.90,-474.12,645.51,109.91,-234.18,4.82,
05/25/2025,21:16:30.50,-677.25,-409.67,538.09,52.41,-186.86,7.41,
05/25/2025,21:16:30.55,-740.23,-352.54,1120.12,21.19,-168.87,1.49,
05/25/2025,21:16:30.57,-335.94,-369.14,620.61,76.86,-161.86,-14.27,
05/25/2025,21:16:30.59,-394.04,-340.82,905.27,43.26,-113.69,18.48,
05/25/2025,21:16:30.61,-371.09,-330.57,782.23,30.46,-85.85,22.84,
05/25/2025,21:16:30.63,-469.73,-308.59,756.35,42.50,-124.60,11.95,
05/25/2025,21:16:30.65,-305.66,-282.23,1010.25,59.45,-147.38,12.41,
05/25/2025,21:16:30.67,-277.83,-281.74,1039.06,41.92,-121.83,25.06,
05/25/2025,21:16:30.69,-315.92,-278.81,988.77,29.39,-105.58,28.45,
05/25/2025,21:16:30.71,-357.91,-310.06,873.05,18.32,-83.26,24.97,
05/25/2025,21:16:30.73,-146.00,-291.02,874.02,36.49,-69.57,12.87,
05/25/2025,21:16:30.75,-179.20,-277.34,1066.89,28.35,-59.51,21.49,
05/25/2025,21:16:30.77,-130.37,-277.34,891.11,3.54,-53.75,18.38,
05/25/2025,21:16:30.79,-179.20,-277.83,912.60,18.11,-51.62,20.88,
05/25/2025,21:16:30.81,-189.45,-289.55,930.66,14.70,-24.94,8.90,
05/25/2025,21:16:30.83,-73.24,-242.19,969.24,7.62,-15.15,-0.27,
05/25/2025,21:16:30.85,-135.74,-240.72,967.29,-2.47,-13.96,-2.44,
05/25/2025,21:16:30.87,-116.21,-228.03,930.18,-9.66,-10.58,-6.19,
05/25/2025,21:16:30.89,-160.64,-246.58,971.19,-15.00,-13.54,-3.93,
05/25/2025,21:16:30.91,-120.61,-262.21,1019.04,-22.50,1.95,-4.70,
05/25/2025,21:16:30.93,-128.42,-258.79,966.31,-21.22,16.98,-19.27,
05/25/2025,21:16:30.95,-23.93,-228.03,869.14,-22.93,14.02,-16.68,
05/25/2025,21:16:30.97,-92.29,-266.11,958.50,-16.10,-17.04,-7.41,
05/25/2025,21:16:30.99,-96.68,-295.90,930.18,-8.78,-7.41,-5.58,
05/25/2025,21:16:31.01,-221.68,-306.15,890.62,-26.49,37.35,2.59,
05/25/2025,21:16:31.06,-134.28,-316.41,925.29,-0.88,20.70,-14.85,
05/25/2025,21:16:31.08,-159.18,-294.92,951.17,-5.12,20.12,-22.65,
05/25/2025,21:16:31.10,-147.95,-325.20,955.08,-23.14,59.09,-33.38,
05/25/2025,21:16:31.12,-190.43,-365.72,870.12,-20.15,122.23,-32.41,
05/25/2025,21:16:31.14,-166.02,-376.46,931.64,-32.53,181.71,-34.63,
05/25/2025,21:16:31.16,-219.24,-403.81,647.95,-50.24,334.91,-29.09,
05/25/2025,21:16:31.18,-425.29,-402.34,829.59,-72.68,420.40,-30.73,
05/25/2025,21:16:31.20,-603.03,-471.68,722.66,-99.66,395.12,-13.32,
05/25/2025,21:16:31.22,-681.64,-495.12,44.92,-55.88,499.24,-18.45,
05/25/2025,21:16:31.24,-1027.34,-544.92,854.00,-113.45,219.91,-21.52,
05/25/2025,21:16:31.26,-875.98,-435.06,443.85,-96.34,176.46,-11.83,
05/25/2025,21:16:31.28,-396.48,-354.00,406.74,-124.91,377.71,-84.63,
05/25/2025,21:16:31.30,-800.78,-444.82,288.09,-124.12,472.93,-93.78,
05/25/2025,21:16:31.32,-743.65,-526.37,81.05,-166.46,514.36,13.02,
05/25/2025,21:16:31.34,-958.01,-608.40,-74.22,-68.60,513.20,82.04,
05/25/2025,21:16:31.36,-631.84,-518.07,-176.76,-7.13,448.90,157.59,
05/25/2025,21:16:31.38,-1093.75,-378.42,-514.16,-13.26,394.82,169.76,
05/25/2025,21:16:31.40,-850.10,-421.88,-318.85,-10.76,345.95,94.33,
05/25/2025,21:16:31.42,-965.33,-462.40,-391.60,-55.18,303.29,62.26,
05/25/2025,21:16:31.44,-809.08,-407.71,-600.10,-38.81,257.84,41.65,
05/25/2025,21:16:31.46,-729.00,-360.84,-713.38,-27.53,211.13,23.78,
05/25/2025,21:16:31.48,-475.10,-305.18,-692.38,-13.99,203.05,-4.66,
05/25/2025,21:16:31.50,-456.05,-333.98,-765.14,-38.23,258.45,9.48,
05/25/2025,21:16:31.52,-812.99,-423.83,-643.55,-26.77,225.52,16.13,
05/25/2025,21:16:31.57,-340.82,-278.32,-639.65,48.17,135.18,1.86,
05/25/2025,21:16:31.59,-239.75,-286.62,-892.09,12.56,104.24,1.16,
05/25/2025,21:16:31.61,-158.20,-319.34,-849.61,-5.18,154.48,12.71,
05/25/2025,21:16:31.63,-338.87,-374.51,-890.62,-17.38,140.12,4.27,
05/25/2025,21:16:31.65,-289.55,-331.54,-924.32,-32.65,91.89,0.98,
05/25/2025,21:16:31.67,-155.27,-333.98,-969.73,-4.24,86.31,-14.57,
05/25/2025,21:16:31.69,-121.58,-314.94,-919.92,-3.99,53.99,-14.97,
05/25/2025,21:16:31.71,-130.37,-347.66,-882.81,-1.43,1.22,-13.02,
05/25/2025,21:16:31.73,-101.07,-338.87,-937.50,12.44,-14.85,-8.99,
05/25/2025,21:16:31.75,-126.95,-349.12,-908.20,14.57,-14.94,-3.93,
05/25/2025,21:16:31.77,-151.86,-346.19,-987.30,15.85,-19.51,1.52,
05/25/2025,21:16:31.79,-146.97,-324.71,-947.27,8.35,-27.62,-0.43,
05/25/2025,21:16:31.81,-140.62,-332.52,-948.73,8.08,-22.47,0.06,
05/25/2025,21:16:31.83,-144.53,-343.26,-930.66,13.29,-13.87,0.88,
05/25/2025,21:16:31.85,-166.50,-344.24,-967.77,17.26,-14.30,2.32,
05/25/2025,21:16:31.87,-194.34,-352.54,-948.24,10.61,-0.24,0.73,
05/25/2025,21:16:31.89,-191.89,-361.82,-949.71,6.86,-4.91,4.33,
05/25/2025,21:16:31.91,-186.52,-366.70,-956.05,7.59,-8.20,2.62,
05/25/2025,21:16:31.93,-178.71,-349.61,-924.32,8.32,-2.56,1.62,
05/25/2025,21:16:31.95,-166.02,-354.98,-946.29,9.09,0.61,1.59,
05/25/2025,21:16:31.97,-176.27,-362.79,-950.20,15.21,11.40,-0.37,
05/25/2025,21:16:31.99,-175.78,-361.82,-942.87,19.85,15.46,3.75,
05/25/2025,21:16:32.01,-202.64,-373.05,-935.55,8.45,11.77,2.01,
05/25/2025,21:16:32.03,-177.73,-364.26,-932.13,3.32,10.61,-3.93,
05/25/2025,21:16:32.09,-191.41,-383.30,-935.06,4.18,13.75,-1.10,
05/25/2025,21:16:32.11,-156.74,-391.60,-922.36,2.65,6.28,-1.34,
05/25/2025,21:16:32.13,-132.32,-383.30,-934.08,0.61,12.90,-3.72,
05/25/2025,21:16:32.15,-129.39,-388.67,-931.15,1.13,14.05,1.16,
05/25/2025,21:16:32.17,-140.62,-359.86,-951.17,-6.71,16.25,5.12,
05/25/2025,21:16:32.19,-128.91,-363.28,-928.71,-3.63,34.66,6.13,
05/25/2025,21:16:32.21,-137.70,-379.88,-947.27,0.34,41.19,6.74,
05/25/2025,21:16:32.23,-152.34,-345.70,-947.27,0.06,46.86,-2.47,
05/25/2025,21:16:32.25,-121.09,-377.93,-954.59,-6.55,42.93,-5.34,
05/25/2025,21:16:32.27,-87.89,-375.98,-931.64,-3.14,44.66,2.71,
05/25/2025,21:16:32.29,-109.38,-386.23,-969.73,4.51,40.49,-1.40,
05/25/2025,21:16:32.31,-58.59,-384.28,-942.38,9.66,42.26,0.21,
05/25/2025,21:16:32.33,-44.43,-377.93,-958.50,8.69,27.90,5.73,
05/25/2025,21:16:32.35,-67.38,-378.91,-948.73,14.73,15.95,10.82,
05/25/2025,21:16:32.37,-41.50,-371.09,-942.87,17.47,16.92,4.60,
05/25/2025,21:16:32.39,-42.48,-366.70,-939.94,13.35,11.62,4.60,
05/25/2025,21:16:32.41,-21.97,-372.07,-966.80,13.78,11.98,3.20,
05/25/2025,21:16:32.43,-18.55,-373.54,-910.64,-2.56,1.28,14.02,
05/25/2025,21:16:32.45,23.44,-378.91,-907.23,3.72,2.04,21.77,
05/25/2025,21:16:32.47,-5.37,-356.93,-934.08,0.21,18.72,29.05,
05/25/2025,21:16:32.49,-40.53,-383.79,-918.95,-5.70,21.89,23.38,
05/25/2025,21:16:32.51,-65.92,-386.23,-958.98,-6.62,19.12,26.22,
05/25/2025,21:16:32.53,-55.66,-403.81,-980.96,-10.95,17.16,20.61,
05/25/2025,21:16:32.55,-70.31,-381.35,-957.52,-8.02,6.28,19.94,
05/25/2025,21:16:32.60,-16.60,-369.63,-968.26,-6.80,-5.12,0.37,
05/25/2025,21:16:32.62,-46.88,-372.56,-971.68,-5.76,-6.83,-2.01,
05/25/2025,21:16:32.64,-45.90,-370.12,-950.20,1.22,3.57,-8.05,
05/25/2025,21:16:32.66,-27.34,-360.84,-949.71,2.90,-2.99,-6.43,
05/25/2025,21:16:32.68,-25.39,-354.49,-942.38,-0.95,-5.49,-9.09,
05/25/2025,21:16:32.70,-41.50,-357.42,-926.27,0.27,-4.94,-2.20,
05/25/2025,21:16:32.72,-23.44,-362.30,-930.66,3.90,-1.43,-7.50,
05/25/2025,21:16:32.74,-34.18,-367.68,-950.20,11.25,-2.26,-11.07,
05/25/2025,21:16:32.76,-27.83,-391.11,-958.50,12.93,11.34,-14.91,
05/25/2025,21:16:32.78,-38.57,-379.39,-920.41,16.49,7.59,-17.29,
05/25/2025,21:16:32.80,-47.36,-382.81,-954.59,9.21,2.84,-9.05,
05/25/2025,21:16:32.82,-44.43,-389.65,-943.85,1.16,0.34,-3.87,
05/25/2025,21:16:32.85,-37.60,-391.60,-971.68,0.91,0.30,0.12,
05/25/2025,21:16:32.87,-38.09,-390.14,-956.05,2.20,1.55,6.10,
05/25/2025,21:16:32.89,-53.22,-385.25,-951.17,0.30,1.10,3.51,
05/25/2025,21:16:32.91,-33.69,-388.67,-948.73,0.67,1.43,-4.45,
05/25/2025,21:16:32.93,-36.13,-385.25,-936.04,3.84,5.37,-0.98,
05/25/2025,21:16:32.95,-30.27,-377.44,-931.64,1.07,2.01,0.34,
05/25/2025,21:16:32.97,-22.95,-387.70,-921.39,-0.95,0.24,0.73,
05/25/2025,21:16:32.99,-20.02,-401.37,-922.36,-1.22,6.31,1.37,
05/25/2025,21:16:33.01,-41.99,-383.30,-940.92,0.85,10.52,7.50,
05/25/2025,21:16:33.03,-37.11,-377.44,-954.10,2.07,8.32,12.26,
05/25/2025,21:16:33.05,-20.51,-381.35,-965.33,-3.93,27.29,10.79,
05/25/2025,21:16:33.07,-38.09,-364.75,-951.17,-3.84,31.55,11.83,
05/25/2025,21:16:33.12,-6.84,-368.16,-929.20,-2.74,2.04,-6.13,
05/25/2025,21:16:33.14,-9.28,-339.84,-924.80,-4.76,-7.44,-9.12,
05/25/2025,21:16:33.16,-4.88,-368.16,-939.45,-3.81,-1.86,-4.42,
05/25/2025,21:16:33.18,-26.86,-359.86,-954.59,-7.56,-2.29,-7.56,
05/25/2025,21:16:33.20,-26.86,-373.54,-949.22,-10.58,-7.90,-3.99,
05/25/2025,21:16:33.22,-44.43,-370.12,-967.29,-10.64,-7.74,-7.07,
05/25/2025,21:16:33.24,-27.83,-362.30,-967.29,-6.10,-6.74,-3.17,
05/25/2025,21:16:33.26,-24.90,-353.03,-953.61,-2.71,-3.75,-2.87,
05/25/2025,21:16:33.28,-42.48,-356.93,-973.14,1.92,-3.32,-1.52,
05/25/2025,21:16:33.30,-16.60,-359.86,-951.17,7.50,-2.53,-1.52,
05/25/2025,21:16:33.32,-44.92,-355.96,-964.84,6.04,-0.76,-0.12,
05/25/2025,21:16:33.34,-30.76,-353.52,-963.87,4.39,-0.03,-1.71,
05/25/2025,21:16:33.36,-31.74,-358.89,-954.59,1.68,-2.16,-1.04,
05/25/2025,21:16:33.38,-38.57,-354.49,-949.71,1.46,-4.60,-2.87,
05/25/2025,21:16:33.40,-59.08,-374.02,-958.98,2.20,-25.24,-1.28,
05/25/2025,21:16:33.42,-39.55,-342.77,-936.52,2.96,-39.82,-0.09,
05/25/2025,21:16:33.44,-57.13,-363.28,-939.94,5.24,-50.55,-5.12,
05/25/2025,21:16:33.46,-57.13,-359.38,-919.92,12.35,-62.13,-5.40,
05/25/2025,21:16:33.48,-84.96,-361.33,-887.21,10.03,-101.13,6.34,
05/25/2025,21:16:33.50,-106.45,-360.84,-932.13,6.31,-136.10,18.81,
05/25/2025,21:16:33.52,-139.65,-339.84,-964.84,4.51,-116.89,25.15,
05/25/2025,21:16:33.54,-187.99,-372.07,-965.33,10.98,-57.20,22.44,
05/25/2025,21:16:33.56,-259.77,-392.09,-958.50,17.13,17.59,16.68,
05/25/2025,21:16:33.58,-265.14,-375.49,-942.87,18.05,27.62,16.34,
05/25/2025,21:16:33.63,-253.91,-398.93,-918.95,0.98,19.18,-10.67,
05/25/2025,21:16:33.65,-232.91,-377.44,-940.43,-3.02,21.19,-11.55,
05/25/2025,21:16:33.67,-200.68,-386.23,-916.99,-3.45,15.49,-7.32,
05/25/2025,21:16:33.69,-209.96,-375.49,-921.39,-3.72,8.41,-1.34,
05/25/2025,21:16:33.71,-189.45,-367.68,-932.62,-1.22,1.68,1.13,
05/25/2025,21:16:33.73,-190.92,-353.03,-918.46,3.29,-1.31,10.58,
05/25/2025,21:16:33.75,-200.68,-364.26,-920.41,2.26,-2.44,7.84,
05/25/2025,21:16:33.77,-185.55,-362.30,-929.20,3.51,-0.37,9.63,
05/25/2025,21:16:33.79,-200.20,-360.35,-907.71,2.23,-4.02,13.63,
05/25/2025,21:16:33.81,-190.43,-365.72,-915.53,7.29,-8.51,13.08,
05/25/2025,21:16:33.83,-200.20,-373.54,-926.76,11.49,-11.80,20.82,
05/25/2025,21:16:33.85,-218.75,-361.82,-896.97,13.69,-14.30,21.80,
05/25/2025,21:16:33.87,-217.29,-357.42,-903.32,21.65,-30.30,36.16,
05/25/2025,21:16:33.89,-242.68,-376.95,-939.94,22.29,-29.05,30.76,
05/25/2025,21:16:33.91,-262.21,-386.23,-937.50,24.33,-27.04,20.82,
05/25/2025,21:16:33.93,-312.99,-394.04,-890.62,19.21,-19.12,24.85,
05/25/2025,21:16:33.95,-323.73,-408.20,-890.62,21.34,-34.15,25.49,
05/25/2025,21:16:33.97,-327.15,-401.86,-880.37,26.89,-41.43,19.73,
05/25/2025,21:16:33.99,-336.43,-439.94,-888.18,31.31,-56.40,7.50,
05/25/2025,21:16:34.01,-333.50,-449.22,-868.16,36.89,-66.59,-4.15,
05/25/2025,21:16:34.03,-327.64,-450.68,-857.42,31.77,-67.07,-9.02,
05/25/2025,21:16:34.05,-324.22,-436.04,-856.45,23.45,-48.84,-6.07,
05/25/2025,21:16:34.07,-360.84,-452.15,-841.80,16.34,-32.41,0.85,
05/25/2025,21:16:34.09,-385.25,-452.64,-835.94,11.83,-23.05,-0.43,
05/25/2025,21:16:34.14,-416.02,-445.31,-818.36,-2.62,0.82,-2.23,
05/25/2025,21:16:34.16,-401.37,-431.64,-838.87,-2.07,-1.13,1.04,
05/25/2025,21:16:34.18,-394.53,-421.88,-829.59,-4.79,2.04,0.95,
05/25/2025,21:16:34.20,-394.53,-435.55,-824.71,-7.74,6.65,-2.99,
05/25/2025,21:16:34.22,-384.28,-437.99,-836.91,-9.45,9.79,-5.12,
05/25/2025,21:16:34.27,-361.82,-443.36,-872.56,-10.58,23.54,-10.27,
05/25/2025,21:16:34.29,-356.93,-429.20,-876.95,-23.72,32.93,-16.25,
05/25/2025,21:16:34.31,-352.05,-434.57,-858.40,-19.85,36.74,-22.50,
05/25/2025,21:16:34.33,-360.84,-447.27,-849.61,-8.51,36.37,-18.08,
05/25/2025,21:16:34.35,-370.12,-422.85,-855.47,-0.49,28.45,-15.00,
05/25/2025,21:16:34.37,-344.24,-421.39,-858.40,4.24,20.03,-12.47,
05/25/2025,21:16:34.39,-328.12,-430.18,-863.28,2.80,12.99,-11.16,
05/25/2025,21:16:34.41,-304.69,-428.71,-862.30,1.95,9.57,-5.82,
05/25/2025,21:16:34.43,-316.41,-434.08,-866.70,-0.82,6.46,-1.86,
05/25/2025,21:16:34.45,-311.04,-434.57,-850.10,-3.66,3.87,-1.43,
05/25/2025,21:16:34.47,-305.18,-421.88,-865.23,1.01,1.65,1.49,
05/25/2025,21:16:34.49,-304.69,-416.50,-846.68,-0.76,2.44,0.82,
05/25/2025,21:16:34.51,-312.01,-422.85,-857.42,-1.34,-2.35,3.63,
05/25/2025,21:16:34.53,-313.48,-432.13,-888.18,0.95,2.01,3.32,
05/25/2025,21:16:34.55,-319.82,-427.25,-867.68,3.45,4.21,0.64,
05/25/2025,21:16:34.57,-310.55,-433.11,-880.86,2.93,7.65,-3.69,
05/25/2025,21:16:34.59,-309.08,-443.85,-894.04,0.12,15.09,-2.65,
05/25/2025,21:16:34.61,-321.78,-444.34,-902.34,0.91,21.13,-10.49,
05/25/2025,21:16:34.68,-259.28,-429.20,-901.37,0.49,28.99,-17.23,
05/25/2025,21:16:34.70,-254.39,-435.06,-874.02,7.77,25.21,-9.85,
05/25/2025,21:16:34.72,-206.54,-446.29,-873.05,5.64,11.37,-5.76,
05/25/2025,21:16:34.74,-208.98,-428.71,-868.65,9.33,7.50,1.49,
05/25/2025,21:16:34.76,-225.59,-435.55,-871.09,3.51,5.21,-0.03,
05/25/2025,21:16:34.78,-233.40,-439.94,-886.72,2.32,11.74,-4.15,
05/25/2025,21:16:34.80,-231.93,-430.66,-881.84,-0.88,11.31,-12.01,
05/25/2025,21:16:34.82,-229.00,-426.76,-886.72,-1.07,3.69,-5.27,
05/25/2025,21:16:34.84,-233.40,-431.64,-886.23,-1.55,3.57,-1.22,
05/25/2025,21:16:34.86,-236.33,-442.87,-898.93,-2.04,3.81,-1.77,
05/25/2025,21:16:34.88,-235.84,-441.89,-909.18,-0.24,3.90,-3.87,
05/25/2025,21:16:34.90,-212.89,-425.78,-891.11,-0.21,5.18,-0.18,
05/25/2025,21:16:34.92,-225.10,-450.20,-900.88,3.48,1.71,-0.03,
05/25/2025,21:16:34.94,-212.40,-428.71,-884.77,4.30,1.68,0.61,
05/25/2025,21:16:34.96,-212.89,-438.48,-894.04,4.91,1.34,-5.24,
05/25/2025,21:16:34.98,-214.36,-461.43,-892.09,7.23,2.26,-4.18,
05/25/2025,21:16:35.00,-208.98,-447.75,-897.95,8.90,5.40,-13.20,
05/25/2025,21:16:35.02,-194.34,-447.27,-893.07,8.78,9.45,-14.63,
05/25/2025,21:16:35.04,-206.05,-459.47,-900.39,10.15,6.10,-14.54,
05/25/2025,21:16:35.06,-203.61,-457.52,-889.16,9.70,12.38,-12.04,
05/25/2025,21:16:35.08,-195.80,-458.98,-906.25,9.91,14.30,-16.10,
05/25/2025,21:16:35.10,-239.75,-431.15,-741.70,28.75,-16.22,-22.20,
05/25/2025,21:16:35.12,-220.70,-470.21,-899.41,23.08,3.08,-19.76,
05/25/2025,21:16:35.17,-208.98,-464.84,-929.20,23.75,11.19,-19.12,
05/25/2025,21:16:35.19,-174.32,-502.44,-877.44,31.65,16.16,-13.72,
05/25/2025,21:16:35.21,-198.24,-497.56,-873.05,36.04,17.32,-16.74,
05/25/2025,21:16:35.23,-315.43,-487.79,-704.59,32.20,-20.55,-36.46,
05/25/2025,21:16:35.25,-160.64,-549.80,-923.83,27.04,-20.21,-33.99,
05/25/2025,21:16:35.27,-132.81,-501.95,-805.66,34.42,-11.92,-29.79,
05/25/2025,21:16:35.29,-121.58,-508.79,-816.41,34.36,-11.59,-21.01,
05/25/2025,21:16:35.31,-109.86,-572.75,-874.02,43.60,-8.17,-23.45,
05/25/2025,21:16:35.33,-145.51,-563.96,-833.98,48.69,4.45,-21.74,
05/25/2025,21:16:35.35,-148.93,-547.85,-805.66,54.12,-5.70,-17.13,
05/25/2025,21:16:35.37,-159.67,-617.68,-795.90,61.31,-18.51,-20.00,
05/25/2025,21:16:35.39,-160.64,-587.40,-804.20,80.52,-15.40,-29.88,
05/25/2025,21:16:35.41,-157.71,-627.44,-752.93,81.59,-26.62,-20.95,
05/25/2025,21:16:35.43,-164.55,-629.88,-756.84,61.68,-36.68,-14.36,
05/25/2025,21:16:35.45,-166.50,-669.43,-774.41,50.18,-35.52,-17.59,
05/25/2025,21:16:35.47,-135.25,-714.84,-670.41,53.93,-48.60,-43.60,
05/25/2025,21:16:35.49,-206.05,-663.09,-742.68,42.10,-45.70,-45.18,
05/25/2025,21:16:35.51,-115.23,-850.10,-761.72,42.77,-122.10,12.68,
05/25/2025,21:16:35.53,-230.96,-734.86,-675.78,63.66,-229.18,52.80,
05/25/2025,21:16:35.55,-248.54,-778.32,-687.50,81.28,-133.38,66.40,
05/25/2025,21:16:35.57,-862.30,-793.95,-442.38,87.68,-181.43,48.96,
05/25/2025,21:16:35.59,-460.45,-656.74,-137.21,2.13,-429.91,-4.39,
05/25/2025,21:16:35.61,-521.97,-810.06,-489.26,27.07,-250.82,1.55,
05/25/2025,21:16:35.63,-474.12,-794.92,-392.58,40.73,-137.53,-10.64,
05/25/2025,21:16:35.68,-473.63,-764.65,-428.22,88.72,-195.00,-8.69,
05/25/2025,21:16:35.70,-481.45,-767.58,-221.68,69.57,-121.95,-10.18,
05/25/2025,21:16:35.72,-465.82,-773.93,-206.54,35.27,0.18,-17.41,
05/25/2025,21:16:35.74,-479.98,-803.22,-112.30,9.94,28.81,-7.74,
05/25/2025,21:16:35.76,-564.45,-826.66,-202.15,-23.11,36.43,-8.93,
05/25/2025,21:16:35.78,-620.12,-823.24,-335.45,-31.77,-2.20,-3.08,
05/25/2025,21:16:35.80,-592.77,-836.91,-358.89,-6.95,-86.62,-10.37,
05/25/2025,21:16:35.82,-562.99,-813.48,-272.95,-9.15,-119.33,-10.30,
05/25/2025,21:16:35.84,-592.29,-841.31,-280.76,-13.57,-118.41,-5.91,
05/25/2025,21:16:35.86,-626.95,-840.33,-234.86,-20.18,-119.76,-15.43,
05/25/2025,21:16:35.88,-544.92,-829.10,-289.06,-8.93,-128.75,-16.19,
05/25/2025,21:16:35.90,-571.78,-823.24,-269.04,-3.81,-83.26,-8.69,
05/25/2025,21:16:35.92,-526.86,-794.92,-250.49,9.70,-79.57,-10.46,
05/25/2025,21:16:35.94,-543.95,-806.64,-113.28,7.38,-64.97,-1.62,
05/25/2025,21:16:35.96,-568.36,-805.66,-79.10,-14.57,-33.20,-6.43,
05/25/2025,21:16:35.98,-560.06,-823.73,-168.95,-13.14,-42.04,-8.29,
05/25/2025,21:16:36.00,-570.80,-833.50,-157.23,-4.48,-26.04,0.30,
05/25/2025,21:16:36.02,-592.29,-839.84,-135.25,-2.41,-21.04,-2.26,
05/25/2025,21:16:36.04,-579.10,-847.17,-161.62,1.74,-10.46,-4.66,
05/25/2025,21:16:36.06,-567.87,-824.22,-148.93,-1.13,13.75,-2.84,
05/25/2025,21:16:36.08,-594.73,-841.80,-166.50,-1.98,3.45,-2.87,
05/25/2025,21:16:36.10,-595.70,-822.27,-137.70,2.26,-10.49,4.18,
05/25/2025,21:16:36.12,-552.25,-828.12,-138.18,4.85,-30.15,-3.17,
05/25/2025,21:16:36.14,-550.78,-823.24,-111.33,-0.03,-7.20,-2.38,
05/25/2025,21:16:36.19,-592.77,-837.89,-125.98,0.49,2.38,1.49,
05/25/2025,21:16:36.21,-603.52,-836.43,-115.72,1.37,2.10,-2.07,
05/25/2025,21:16:36.23,-571.78,-835.45,-124.51,5.34,8.38,-1.43,
05/25/2025,21:16:36.25,-556.64,-825.20,-138.18,0.98,29.18,2.44,
05/25/2025,21:16:36.27,-519.04,-812.01,-168.95,6.89,59.97,6.49,
05/25/2025,21:16:36.29,-597.17,-821.78,-99.61,6.01,79.30,9.63,
05/25/2025,21:16:36.31,-588.38,-831.05,-171.88,5.95,70.12,-0.43,
05/25/2025,21:16:36.33,-624.51,-827.15,-125.98,2.87,2.90,11.55,
05/25/2025,21:16:36.35,-612.30,-824.71,-169.43,2.44,-41.31,-4.94,
05/25/2025,21:16:36.37,-584.47,-828.12,-147.46,8.63,-77.47,-3.23,
05/25/2025,21:16:36.39,-601.56,-841.80,-124.02,5.64,-63.29,-7.77,
05/25/2025,21:16:36.41,-552.73,-831.54,-135.25,4.24,-43.35,-3.20,
05/25/2025,21:16:36.43,-571.29,-820.80,-99.61,1.89,-25.70,-0.52,
05/25/2025,21:16:36.45,-605.96,-840.82,-132.81,3.38,-50.88,-2.62,
05/25/2025,21:16:36.47,-599.12,-843.26,-94.73,2.68,-46.16,-5.24,
05/25/2025,21:16:36.49,-563.48,-826.17,-62.50,1.28,-33.17,-0.21,
05/25/2025,21:16:36.51,-518.07,-811.52,-65.43,-0.98,-5.12,-5.73,
05/25/2025,21:16:36.53,-557.13,-821.29,-71.78,-0.88,21.37,4.48,
05/25/2025,21:16:36.55,-621.58,-837.40,-96.19,-0.88,1.80,2.35,
05/25/2025,21:16:36.57,-544.43,-837.89,-79.10,-0.21,13.54,0.88,
05/25/2025,21:16:36.59,-562.50,-816.89,-47.85,-6.49,36.89,8.66,
05/25/2025,21:16:36.61,-603.52,-825.68,-76.66,-9.94,40.70,6.71,
05/25/2025,21:16:36.63,-591.80,-847.66,-130.86,-6.07,32.84,3.45,
05/25/2025,21:16:36.65,-578.12,-808.59,-86.91,-7.65,50.09,4.33,
05/25/2025,21:16:36.70,-589.84,-844.73,-166.02,-5.00,1.68,-0.88,
05/25/2025,21:16:36.73,-595.70,-815.43,-176.27,-4.79,-0.18,0.76,
05/25/2025,21:16:36.75,-606.45,-823.24,-176.27,2.26,-21.86,-3.45,
05/25/2025,21:16:36.77,-569.34,-808.11,-173.83,14.70,-36.19,3.20,
05/25/2025,21:16:36.79,-640.14,-862.30,-159.18,31.65,-66.92,0.85,
05/25/2025,21:16:36.81,-792.97,-1000.98,-58.59,81.46,-116.77,0.95,
05/25/2025,21:16:36.83,-946.29,-1062.99,-181.15,171.28,-218.99,-33.05,
05/25/2025,21:16:36.85,-744.63,-912.11,-216.31,256.19,-351.71,-51.40,
05/25/2025,21:16:36.87,-575.20,-776.37,133.79,291.98,-369.51,-60.64,
05/25/2025,21:16:36.89,-313.48,-716.80,49.80,287.29,-356.89,-53.51,
05/25/2025,21:16:36.91,77.64,-486.82,292.97,222.13,-168.66,-26.62,
05/25/2025,21:16:36.93,-87.40,-538.57,745.61,163.02,-51.43,20.61,
05/25/2025,21:16:36.95,-508.30,-679.20,1070.31,96.86,-52.74,15.18,
05/25/2025,21:16:36.97,-553.22,-726.07,639.65,51.22,-65.34,-25.09,
05/25/2025,21:16:36.99,-382.32,-670.90,479.98,91.59,-63.29,-45.21,
05/25/2025,21:16:37.01,-284.67,-570.80,682.13,94.21,-90.43,-43.29,
05/25/2025,21:16:37.03,-218.75,-568.36,643.07,80.82,-63.90,-36.16,
05/25/2025,21:16:37.05,-321.78,-587.89,659.67,59.02,-32.65,-39.36,
05/25/2025,21:16:37.07,-228.03,-589.36,708.98,45.12,-31.80,-51.04,
05/25/2025,21:16:37.09,-280.76,-583.01,840.82,34.21,-58.90,-51.31,
05/25/2025,21:16:37.11,-295.90,-602.05,789.06,32.47,-80.30,-63.17,
05/25/2025,21:16:37.13,-176.76,-566.41,786.13,41.71,-83.54,-60.76,
05/25/2025,21:16:37.15,-62.50,-538.57,767.09,51.49,-67.41,-53.57,
05/25/2025,21:16:37.17,-8.79,-510.74,924.80,51.43,-93.87,-43.51,
05/25/2025,21:16:37.23,-103.52,-534.67,881.35,26.89,-33.54,-63.48,
05/25/2025,21:16:37.25,40.04,-494.63,827.15,27.62,-31.59,-73.90,
05/25/2025,21:16:37.27,39.06,-478.03,872.56,34.12,-36.22,-75.79,
05/25/2025,21:16:37.29,104.00,-504.39,878.42,33.26,-44.91,-52.20,
05/25/2025,21:16:37.31,-35.16,-521.97,872.56,32.29,-12.74,-55.52,
05/25/2025,21:16:37.33,131.84,-475.10,867.19,7.35,-13.48,-61.07,
05/25/2025,21:16:37.35,164.55,-479.98,833.98,17.62,-5.82,-36.01,
05/25/2025,21:16:37.37,139.65,-452.15,840.33,10.82,-12.84,-29.60,
05/25/2025,21:16:37.39,86.43,-492.19,896.00,9.94,-9.42,-26.28,
05/25/2025,21:16:37.41,48.83,-482.42,856.93,0.79,8.20,-40.46,
05/25/2025,21:16:37.43,141.11,-458.50,919.92,8.32,8.38,-45.49,
05/25/2025,21:16:37.45,165.53,-440.92,883.30,-3.87,6.62,-23.38,
05/25/2025,21:16:37.47,120.61,-456.05,850.59,5.27,1.01,-21.43,
05/25/2025,21:16:37.49,167.48,-455.08,896.97,5.00,-1.95,-13.23,
05/25/2025,21:16:37.51,125.98,-466.80,887.70,-1.59,-1.04,-6.46,
05/25/2025,21:16:37.53,154.30,-441.41,864.26,0.15,0.67,-7.74,
05/25/2025,21:16:37.55,125.49,-461.91,868.16,4.85,4.45,1.04,
05/25/2025,21:16:37.57,125.98,-458.50,896.48,9.88,4.18,-1.59,
05/25/2025,21:16:37.59,170.90,-441.41,903.81,6.22,-0.46,5.85,
05/25/2025,21:16:37.61,127.93,-447.27,887.21,7.20,-2.96,15.49,
05/25/2025,21:16:37.63,116.70,-456.05,892.58,16.68,-8.11,6.83,
05/25/2025,21:16:37.65,138.67,-440.43,876.46,17.80,-10.79,6.13,
05/25/2025,21:16:37.67,142.58,-441.89,915.53,11.07,-4.91,0.64,
05/25/2025,21:16:37.69,96.68,-464.84,932.13,1.46,3.05,-3.26,
05/25/2025,21:16:37.75,151.37,-451.17,843.75,10.34,9.33,-16.01,
05/25/2025,21:16:37.77,159.18,-436.04,928.22,9.36,15.61,-16.95,
05/25/2025,21:16:37.79,137.70,-428.22,886.23,5.52,13.11,-14.82,
05/25/2025,21:16:37.81,140.14,-437.50,891.11,4.12,10.58,-8.90,
05/25/2025,21:16:37.83,123.05,-450.20,849.12,6.62,12.90,-11.95,
05/25/2025,21:16:37.85,124.02,-415.53,903.32,10.46,14.51,-13.11,
05/25/2025,21:16:37.87,140.14,-406.74,927.25,8.35,8.84,-9.63,
05/25/2025,21:16:37.89,139.65,-410.16,931.64,9.30,4.30,-7.96,
05/25/2025,21:16:37.91,132.81,-416.02,912.60,1.71,6.28,-5.00,
05/25/2025,21:16:37.93,125.49,-410.16,922.36,0.21,1.77,-8.84,
05/25/2025,21:16:37.95,121.09,-411.62,914.06,4.88,-0.21,-3.72,
05/25/2025,21:16:37.97,153.32,-417.97,901.37,2.59,0.30,-2.32,
05/25/2025,21:16:37.99,140.62,-420.90,905.27,0.09,3.23,5.46,
05/25/2025,21:16:38.01,144.04,-424.80,915.53,-1.37,1.52,8.51,
05/25/2025,21:16:38.03,152.34,-425.78,882.32,3.75,-3.93,11.89,
05/25/2025,21:16:38.05,125.00,-431.15,910.64,8.14,2.53,6.92,
05/25/2025,21:16:38.07,102.54,-414.06,916.02,0.49,4.54,6.49,
05/25/2025,21:16:38.09,102.05,-431.15,908.20,2.90,2.26,-1.59,
05/25/2025,21:16:38.11,87.89,-453.12,885.25,6.89,-3.81,-8.93,
05/25/2025,21:16:38.13,158.20,-407.23,923.83,7.71,-0.40,-8.11,
05/25/2025,21:16:38.15,136.23,-404.30,922.85,-0.85,0.58,-2.04,
05/25/2025,21:16:38.17,127.93,-413.57,928.71,2.29,1.43,-2.47,
05/25/2025,21:16:38.19,165.53,-393.07,934.57,3.60,3.99,-5.03,
05/25/2025,21:16:38.21,130.37,-428.22,903.81,5.58,4.30,-3.29,
05/25/2025,21:16:38.27,130.86,-393.55,899.41,3.93,0.82,-1.83,
05/25/2025,21:16:38.29,108.89,-430.18,896.00,7.32,3.02,-2.56,
05/25/2025,21:16:38.31,133.30,-394.53,926.27,4.27,0.37,-4.66,
05/25/2025,21:16:38.33,143.07,-398.93,919.92,-1.25,2.56,-0.30,
05/25/2025,21:16:38.35,145.02,-389.65,918.95,-2.84,0.06,-4.54,
05/25/2025,21:16:38.37,145.02,-409.67,916.02,-3.69,-0.34,-1.71,
05/25/2025,21:16:38.39,161.62,-418.46,919.43,-6.31,1.68,-0.79,
05/25/2025,21:16:38.41,161.13,-436.52,878.42,8.66,-9.85,-5.24,
05/25/2025,21:16:38.43,137.21,-409.67,909.67,-2.38,-6.19,-9.36,
05/25/2025,21:16:38.45,147.95,-405.76,915.53,1.49,-5.85,-9.05,
05/25/2025,21:16:38.47,154.79,-396.48,935.06,-2.96,-2.10,-3.57,
05/25/2025,21:16:38.49,174.32,-404.79,901.37,-1.52,-4.36,-5.76,
05/25/2025,21:16:38.51,156.25,-409.18,896.48,2.71,-1.77,-3.32,
05/25/2025,21:16:38.53,161.62,-408.69,916.99,1.34,-0.79,-5.34,
05/25/2025,21:16:38.55,163.09,-417.48,897.95,3.69,0.30,-5.43,
05/25/2025,21:16:38.57,141.11,-423.83,896.48,2.96,3.78,0.21,
05/25/2025,21:16:38.59,164.06,-409.18,912.11,0.55,3.23,-0.24,
05/25/2025,21:16:38.61,159.18,-405.76,904.30,2.16,4.63,-2.13,
05/25/2025,21:16:38.63,165.53,-406.25,891.60,1.74,0.24,-2.50,
05/25/2025,21:16:38.65,157.23,-410.64,886.72,0.82,1.95,-1.89,
05/25/2025,21:16:38.67,162.11,-404.30,918.46,1.80,2.84,-5.85,
05/25/2025,21:16:38.69,152.83,-403.32,892.09,1.55,3.11,-3.20,
05/25/2025,21:16:38.71,157.71,-400.39,901.37,0.70,5.21,0.67,
05/25/2025,21:16:38.73,156.25,-408.69,916.50,1.83,5.64,1.25,
05/25/2025,21:16:38.79,160.16,-398.93,900.39,3.17,1.65,-1.92,
05/25/2025,21:16:38.81,149.90,-402.34,915.04,1.25,4.88,-1.19,
05/25/2025,21:16:38.83,151.86,-403.81,911.13,3.51,1.46,-0.27,
05/25/2025,21:16:38.85,156.25,-413.57,896.00,3.08,1.74,-0.34,
05/25/2025,21:16:38.87,140.14,-399.90,904.79,4.27,3.54,0.34,
05/25/2025,21:16:38.89,151.86,-411.62,912.11,4.73,3.38,-2.56,
05/25/2025,21:16:38.91,138.18,-402.34,910.64,6.28,3.72,-2.50,
05/25/2025,21:16:38.93,146.48,-397.95,897.95,5.12,3.48,-3.75,
05/25/2025,21:16:38.95,143.55,-395.02,900.88,9.66,3.23,-4.18,
05/25/2025,21:16:38.97,164.55,-400.88,899.90,7.90,0.00,-0.73,
05/25/2025,21:16:38.99,147.46,-412.60,908.20,7.44,5.34,-3.17,
05/25/2025,21:16:39.01,136.23,-403.32,888.18,1.34,6.22,-1.62,
05/25/2025,21:16:39.03,133.30,-410.16,891.60,2.62,10.18,-0.76,
05/25/2025,21:16:39.05,138.18,-397.95,869.14,9.60,8.48,-5.85,
05/25/2025,21:16:39.07,137.21,-397.46,882.81,16.10,6.74,-7.93,
05/25/2025,21:16:39.09,160.64,-383.79,914.06,15.34,7.68,-6.13,
05/25/2025,21:16:39.11,156.25,-369.14,963.87,15.85,5.06,-5.34,
05/25/2025,21:16:39.13,154.30,-371.58,934.57,7.74,5.27,-4.45,
05/25/2025,21:16:39.15,154.79,-355.96,964.36,8.20,0.88,-2.68,
05/25/2025,21:16:39.17,151.86,-356.45,951.66,6.68,2.07,-1.86,
05/25/2025,21:16:39.19,145.51,-355.96,944.34,4.09,4.12,0.82,
05/25/2025,21:16:39.21,149.41,-375.49,931.15,8.87,5.88,-3.05,
05/25/2025,21:16:39.23,146.48,-371.09,941.89,3.02,4.63,-0.52,
05/25/2025,21:16:39.25,141.11,-370.12,924.80,6.07,5.91,-2.74,
05/25/2025,21:16:39.31,117.68,-376.46,905.27,8.84,3.63,-7.59,
05/25/2025,21:16:39.33,123.54,-378.42,918.95,5.46,11.86,-6.92,
05/25/2025,21:16:39.35,123.54,-368.16,909.18,2.59,10.37,-7.10,
05/25/2025,21:16:39.37,141.60,-348.14,905.27,7.65,8.35,-7.07,
05/25/2025,21:16:39.39,127.93,-366.21,933.11,5.37,10.82,-4.45,
05/25/2025,21:16:39.41,140.62,-335.45,940.92,3.57,12.59,-4.24,
05/25/2025,21:16:39.43,123.05,-353.03,931.64,2.47,8.87,-1.49,
05/25/2025,21:16:39.45,124.02,-350.10,947.27,0.98,4.48,-1.71,
05/25/2025,21:16:39.47,128.91,-335.45,936.52,4.36,5.58,-2.13,
05/25/2025,21:16:39.49,123.54,-346.19,951.17,6.74,7.26,-0.55,
05/25/2025,21:16:39.51,129.88,-351.07,947.75,1.25,3.35,-0.76,
05/25/2025,21:16:39.53,113.77,-359.38,913.57,3.66,2.71,-3.08,
05/25/2025,21:16:39.55,124.02,-352.54,963.87,1.01,4.39,1.13,
05/25/2025,21:16:39.57,122.56,-356.93,935.06,3.26,6.16,-3.26,
05/25/2025,21:16:39.59,110.84,-361.82,963.38,3.08,3.11,0.06,
05/25/2025,21:16:39.61,112.79,-367.68,938.96,2.93,4.21,0.21,
05/25/2025,21:16:39.63,121.58,-355.96,941.89,2.44,3.72,-0.91,
05/25/2025,21:16:39.65,114.75,-351.07,919.43,-0.98,6.52,-3.23,
05/25/2025,21:16:39.67,108.40,-350.59,943.36,0.24,2.16,-2.96,
05/25/2025,21:16:39.69,91.31,-367.68,922.85,-3.05,0.58,-1.86,
05/25/2025,21:16:39.71,122.07,-366.70,953.61,3.11,0.98,-0.58,
05/25/2025,21:16:39.73,115.72,-343.75,947.27,-0.76,1.13,3.66,
05/25/2025,21:16:39.75,120.12,-347.17,933.59,-0.91,2.20,0.18,
05/25/2025,21:16:39.77,102.54,-361.33,909.18,-2.04,2.59,-1.52,
05/25/2025,21:16:39.82,131.35,-357.91,914.06,0.18,-2.59,6.04,
05/25/2025,21:16:39.84,130.37,-344.24,928.22,0.21,0.76,5.58,
05/25/2025,21:16:39.86,121.09,-368.16,890.62,-0.98,5.40,9.18,
05/25/2025,21:16:39.88,99.61,-374.51,949.22,1.04,4.05,6.28,
05/25/2025,21:16:39.90,115.72,-362.79,915.53,2.20,4.51,1.40,
05/25/2025,21:16:39.92,99.61,-354.98,937.99,1.52,-0.37,4.82,
05/25/2025,21:16:39.94,192.87,-328.61,898.44,0.58,-5.27,17.56,
05/25/2025,21:16:39.96,105.47,-346.19,957.03,1.52,-10.46,36.43,
05/25/2025,21:16:39.98,70.31,-373.05,902.34,-0.18,-2.07,41.49,
05/25/2025,21:16:40.00,70.31,-356.45,943.36,-0.34,2.23,25.06,
05/25/2025,21:16:40.02,109.86,-360.84,937.99,3.11,7.53,10.58,
05/25/2025,21:16:40.04,215.82,-305.18,934.57,4.30,-6.77,29.05,
05/25/2025,21:16:40.06,162.11,-320.31,983.89,10.76,-39.15,75.61,
05/25/2025,21:16:40.08,72.27,-375.98,976.56,20.76,-63.78,98.75,
05/25/2025,21:16:40.10,176.76,-326.17,939.94,6.92,-77.84,111.59,
05/25/2025,21:16:40.12,396.97,-262.21,887.70,28.96,-113.90,199.60,
05/25/2025,21:16:40.14,395.02,-150.88,1120.61,-1.80,-148.32,326.77,
05/25/2025,21:16:40.16,-214.36,-301.27,828.12,-53.17,-141.37,411.40,
05/25/2025,21:16:40.18,472.66,-277.83,797.85,-16.04,-176.55,515.88,
05/25/2025,21:16:40.20,-265.62,-407.71,682.13,-5.61,-122.23,455.27,
05/25/2025,21:16:40.22,3.42,-437.50,783.69,39.66,-84.79,349.91,
05/25/2025,21:16:40.24,39.06,-205.57,1260.25,39.79,-94.57,340.21,
05/25/2025,21:16:40.26,-87.89,-348.14,993.65,30.03,-40.06,313.23,
05/25/2025,21:16:40.28,-144.04,-372.07,1044.92,34.51,42.26,281.10,
05/25/2025,21:16:40.34,-320.80,-477.05,954.10,43.41,-75.34,165.37,
05/25/2025,21:16:40.36,-272.46,-372.07,1101.07,30.00,-46.55,117.99,
05/25/2025,21:16:40.38,-163.09,-328.12,1109.86,3.60,-39.18,98.57,
05/25/2025,21:16:40.40,-182.62,-282.71,907.23,9.91,9.85,96.62,
05/25/2025,21:16:40.42,-202.64,-238.77,1203.12,0.79,-8.35,86.95,
05/25/2025,21:16:40.44,-377.44,-401.86,992.68,-4.02,-17.20,83.26,
05/25/2025,21:16:40.46,-152.34,-241.21,992.19,-29.51,-51.13,46.13,
05/25/2025,21:16:40.48,87.89,-311.04,910.16,33.17,-96.37,4.91,
05/25/2025,21:16:40.50,-174.32,-522.46,625.98,0.15,-92.35,9.91,
05/25/2025,21:16:40.52,-128.42,-449.22,808.11,-23.45,-73.81,21.37,
05/25/2025,21:16:40.54,-16.11,-416.50,862.79,12.23,-35.73,47.71,
05/25/2025,21:16:40.56,100.59,-388.18,992.68,17.62,-32.23,56.28,
05/25/2025,21:16:40.58,236.82,-267.58,791.99,23.60,-32.16,69.79,
05/25/2025,21:16:40.60,137.21,-250.49,1115.23,36.16,-46.86,94.60,
05/25/2025,21:16:40.62,-196.29,-396.48,875.49,26.04,6.46,116.59,
05/25/2025,21:16:40.64,-21.97,-328.12,1010.25,29.30,-9.18,74.45,
05/25/2025,21:16:40.66,249.02,-290.04,913.09,24.51,-55.34,109.60,
05/25/2025,21:16:40.68,3.91,-350.10,902.34,25.67,-50.34,129.70,
05/25/2025,21:16:40.70,-263.67,-425.29,863.77,33.57,-30.24,96.95,
05/25/2025,21:16:40.72,-24.41,-337.89,950.20,35.34,-25.21,66.37,
05/25/2025,21:16:40.74,-8.79,-367.19,1069.82,26.13,-23.48,60.58,
05/25/2025,21:16:40.76,-110.35,-332.03,1053.22,8.57,-22.04,36.43,
05/25/2025,21:16:40.78,-98.63,-334.96,900.39,-6.55,-5.58,25.91,
05/25/2025,21:16:40.80,-83.01,-305.18,859.86,0.70,28.29,1.55,
05/25/2025,21:16:40.85,-53.71,-357.91,923.34,-25.70,23.05,-0.40,
05/25/2025,21:16:40.87,-30.76,-306.64,941.89,-24.15,21.55,-10.64,
05/25/2025,21:16:40.89,-49.80,-316.89,897.46,-15.76,18.63,-4.91,
05/25/2025,21:16:40.91,-66.89,-346.68,904.30,-15.49,3.81,-5.95,
05/25/2025,21:16:40.93,-49.80,-337.40,893.07,-11.80,6.37,-8.38,
05/25/2025,21:16:40.95,-48.34,-342.77,912.60,-6.13,12.20,-11.25,
05/25/2025,21:16:40.97,-25.39,-344.73,977.05,-1.13,10.64,-7.53,
05/25/2025,21:16:40.99,-47.36,-356.45,1004.88,-11.31,6.95,-5.64,
05/25/2025,21:16:41.01,-66.41,-355.47,923.83,-12.38,7.13,-3.93,
05/25/2025,21:16:41.03,-71.78,-371.09,890.14,-5.79,16.49,-9.02,
05/25/2025,21:16:41.05,-42.97,-371.09,901.86,-0.98,28.05,-17.32,
05/25/2025,21:16:41.07,-28.81,-346.19,911.62,-1.19,16.25,-11.65,
05/25/2025,21:16:41.09,-3.91,-325.20,958.98,1.43,6.86,-5.18,
05/25/2025,21:16:41.11,-60.06,-339.84,1007.81,4.05,2.99,2.16,
05/25/2025,21:16:41.13,-70.31,-354.49,951.17,-3.75,-2.65,4.15,
05/25/2025,21:16:41.15,-9.77,-359.38,912.60,-4.09,-19.60,4.48,
05/25/2025,21:16:41.17,-23.44,-378.42,905.76,-3.75,-12.84,8.45,
05/25/2025,21:16:41.19,-105.96,-341.31,925.29,1.22,-3.66,5.18,
05/25/2025,21:16:41.21,-44.43,-334.47,937.50,5.85,-0.40,2.62,
05/25/2025,21:16:41.23,-22.46,-357.42,958.98,2.26,-9.57,7.99,
05/25/2025,21:16:41.25,-57.13,-369.63,965.82,2.99,-11.25,4.24,
05/25/2025,21:16:41.27,-68.85,-339.36,963.87,1.25,1.95,3.57,
05/25/2025,21:16:41.29,-30.27,-355.47,944.82,2.59,-0.52,-1.98,
05/25/2025,21:16:41.31,-14.65,-371.09,909.67,3.32,-3.90,-4.51,
05/25/2025,21:16:41.36,-53.22,-333.50,931.15,-0.67,0.52,-5.49,
05/25/2025,21:16:41.38,-20.51,-339.36,902.34,0.24,0.27,-0.85,
05/25/2025,21:16:41.40,-24.90,-352.54,902.83,-1.80,0.18,-3.90,
05/25/2025,21:16:41.42,-35.64,-340.82,927.25,-1.80,1.25,-3.72,
05/25/2025,21:16:41.44,-12.70,-347.17,945.31,-0.88,3.90,-2.10,
05/25/2025,21:16:41.46,-2.93,-351.56,946.78,-2.10,0.79,-3.29,
05/25/2025,21:16:41.48,-26.86,-364.75,969.24,-2.10,-0.03,-2.68,
05/25/2025,21:16:41.50,-8.79,-343.26,942.87,-1.40,-2.71,-2.65,
05/25/2025,21:16:41.52,-5.86,-360.84,929.20,-0.24,-2.01,0.43,
05/25/2025,21:16:41.54,-42.97,-348.63,959.47,4.15,1.74,4.24,
05/25/2025,21:16:41.56,-3.91,-367.68,948.24,2.29,-0.98,1.31,
05/25/2025,21:16:41.58,-13.67,-355.96,963.38,2.59,1.25,-0.55,
05/25/2025,21:16:41.60,-42.97,-350.59,979.98,0.46,3.05,-0.98,
05/25/2025,21:16:41.62,-4.88,-350.10,960.94,-2.65,0.03,-0.76,
05/25/2025,21:16:41.64,-51.27,-384.28,889.65,1.52,2.90,-0.34,
05/25/2025,21:16:41.66,-22.95,-367.19,933.59,2.68,9.27,-5.03,
05/25/2025,21:16:41.68,-36.62,-336.91,1002.93,-2.65,6.49,-6.59,
05/25/2025,21:16:41.70,-14.65,-344.73,908.69,0.55,7.16,-5.98,
05/25/2025,21:16:41.72,-27.34,-346.19,928.71,3.14,4.36,-0.61,
05/25/2025,21:16:41.74,-29.79,-352.54,948.24,-0.46,0.64,-3.08,
05/25/2025,21:16:41.77,-27.83,-348.63,930.66,0.27,-1.83,-3.63,
05/25/2025,21:16:41.79,-28.81,-368.16,927.73,0.58,2.71,-2.65,
05/25/2025,21:16:41.81,-33.69,-343.75,925.78,2.10,2.74,-2.47,
05/25/2025,21:16:41.83,-5.86,-353.03,928.22,3.45,1.31,-3.51,
05/25/2025,21:16:41.87,0.00,-368.65,952.64,4.73,4.57,0.00,
05/25/2025,21:16:41.89,-31.74,-359.38,959.47,2.16,4.05,1.89,
05/25/2025,21:16:41.91,-39.55,-348.14,949.22,-2.04,3.99,0.82,
05/25/2025,21:16:41.94,-21.97,-349.61,941.41,-0.43,0.15,0.27,
05/25/2025,21:16:41.96,-13.67,-361.33,957.52,-0.15,3.96,-3.54,
05/25/2025,21:16:41.98,-19.53,-335.94,936.52,-0.18,-0.03,-2.32,
05/25/2025,21:16:42.00,-29.30,-345.70,915.53,2.23,2.16,-1.40,
05/25/2025,21:16:42.02,-37.11,-357.91,954.59,1.65,3.51,-2.68,
05/25/2025,21:16:42.04,-9.28,-353.52,948.73,-0.82,2.50,-1.43,
05/25/2025,21:16:42.06,-39.06,-356.45,929.69,-3.72,1.59,-4.45,
05/25/2025,21:16:42.08,-52.25,-355.96,927.25,0.95,1.95,-1.83,
05/25/2025,21:16:42.10,-44.92,-343.26,922.85,3.81,4.27,-6.37,
05/25/2025,21:16:42.12,-15.14,-366.21,916.99,3.35,2.77,-12.01,
05/25/2025,21:16:42.14,9.28,-376.46,960.45,2.13,3.23,-5.79,
05/25/2025,21:16:42.16,-30.27,-379.88,934.57,-0.73,3.32,-1.49,
05/25/2025,21:16:42.18,-21.48,-363.77,942.38,1.62,4.79,-3.48,
05/25/2025,21:16:42.20,-33.20,-357.91,959.96,0.49,4.42,-3.69,
05/25/2025,21:16:42.22,-22.46,-367.19,931.64,2.41,1.65,-0.98,
05/25/2025,21:16:42.24,-12.70,-361.33,922.85,3.38,2.32,-1.10,
05/25/2025,21:16:42.26,-22.95,-361.82,937.01,2.26,0.21,-0.73,
05/25/2025,21:16:42.28,-21.00,-358.89,919.43,2.99,2.59,-1.31,
05/25/2025,21:16:42.30,-42.97,-349.61,932.13,0.76,1.98,1.71,
05/25/2025,21:16:42.32,-25.88,-356.93,928.71,2.23,2.65,-2.38,
05/25/2025,21:16:42.34,-15.14,-366.70,929.69,2.32,-0.12,-1.34,
05/25/2025,21:16:42.40,-27.83,-350.59,931.15,0.61,3.14,-1.95,
05/25/2025,21:16:42.42,-29.79,-355.47,923.34,2.32,1.77,-1.71,
05/25/2025,21:16:42.44,-36.13,-364.26,913.09,1.55,6.31,-3.51,
05/25/2025,21:16:42.46,-12.21,-365.72,946.29,0.98,1.25,-2.44,
05/25/2025,21:16:42.48,-12.21,-346.68,938.96,2.13,-0.46,-0.34,
05/25/2025,21:16:42.50,-28.32,-338.38,947.27,-0.61,1.04,0.79,
05/25/2025,21:16:42.52,-20.51,-353.03,927.73,0.55,2.38,-0.58,
05/25/2025,21:16:42.54,-21.48,-355.96,937.99,1.80,2.84,-3.11,
05/25/2025,21:16:42.56,-3.91,-357.91,934.57,3.45,-0.03,-2.68,
05/25/2025,21:16:42.58,5.86,-361.82,958.98,2.41,3.26,-2.93,
05/25/2025,21:16:42.60,-44.43,-357.91,936.52,0.67,0.91,-2.84,
05/25/2025,21:16:42.62,-28.81,-353.52,912.60,3.87,6.34,-4.85,
05/25/2025,21:16:42.64,-43.95,-344.73,887.70,4.97,4.73,-6.01,
05/25/2025,21:16:42.66,-38.09,-330.57,868.65,12.01,7.26,-6.98,
05/25/2025,21:16:42.68,-44.43,-318.36,854.49,19.45,11.92,-10.00,
05/25/2025,21:16:42.70,-50.29,-318.85,888.18,28.29,22.32,-15.76,
05/25/2025,21:16:42.72,15.14,-334.47,1104.00,25.88,23.29,-15.18,
05/25/2025,21:16:42.74,25.88,-320.80,1117.19,8.08,11.40,-8.81,
05/25/2025,21:16:42.76,17.58,-339.36,970.70,-1.74,3.60,-3.08,
05/25/2025,21:16:42.78,-11.23,-340.82,946.78,1.04,5.91,-0.52,
05/25/2025,21:16:42.80,-51.27,-339.84,948.24,0.85,10.30,0.27,
05/25/2025,21:16:42.82,-74.71,-332.52,913.09,0.91,10.00,-2.77,
05/25/2025,21:16:42.84,-62.01,-345.70,932.62,5.58,14.63,-7.23,
05/25/2025,21:16:42.86,-99.61,-333.98,909.18,12.29,11.77,-10.12,
05/25/2025,21:16:42.92,-131.35,-275.39,807.62,41.43,47.80,-32.26,
05/25/2025,21:16:42.94,-161.62,-271.48,785.16,57.87,58.14,-46.37,
05/25/2025,21:16:42.96,-306.64,-209.47,874.02,83.38,49.33,-59.97,
05/25/2025,21:16:42.98,-202.64,-130.86,805.18,102.29,-19.51,-73.63,
05/25/2025,21:16:43.00,-146.97,-186.04,823.73,124.21,-10.40,-74.45,
05/25/2025,21:16:43.02,-53.71,-121.58,1023.93,138.20,17.26,-81.04,
05/25/2025,21:16:43.04,-16.60,-69.82,1028.81,127.01,29.12,-83.69,
05/25/2025,21:16:43.06,-72.27,-39.55,1162.60,118.75,26.28,-80.67,
05/25/2025,21:16:43.08,-81.05,-26.37,1143.55,94.88,21.77,-77.53,
05/25/2025,21:16:43.10,-10.74,10.25,1123.05,81.80,18.48,-68.87,
05/25/2025,21:16:43.12,-49.80,-11.23,1063.48,68.14,18.14,-57.90,
05/25/2025,21:16:43.14,-110.35,16.60,1088.38,59.18,18.93,-53.63,
05/25/2025,21:16:43.16,-186.52,43.95,1003.42,48.66,17.44,-56.55,
05/25/2025,21:16:43.18,-142.58,48.34,917.97,58.69,26.19,-60.27,
05/25/2025,21:16:43.20,-123.54,90.33,1000.98,59.76,25.52,-53.63,
05/25/2025,21:16:43.22,-82.52,104.49,1010.25,53.05,21.95,-52.10,
05/25/2025,21:16:43.24,-99.61,89.84,1079.59,47.29,21.83,-41.89,
05/25/2025,21:16:43.26,-33.69,128.91,975.59,47.68,16.89,-20.61,
05/25/2025,21:16:43.28,-86.43,130.86,931.15,47.41,4.09,-6.80,
05/25/2025,21:16:43.30,-244.14,148.93,702.64,63.75,13.17,-4.27,
05/25/2025,21:16:43.32,-253.91,164.55,721.68,106.25,39.48,-7.59,
05/25/2025,21:16:43.34,-311.52,202.64,912.11,124.21,56.89,-11.83,
05/25/2025,21:16:43.36,-525.39,186.52,949.22,143.32,105.58,-14.51,
05/25/2025,21:16:43.38,-174.32,393.55,989.75,131.62,23.72,-15.55,
05/25/2025,21:16:43.43,-172.85,359.86,935.06,134.85,20.49,13.63,
05/25/2025,21:16:43.45,-380.37,432.62,977.05,108.54,26.86,12.50,
05/25/2025,21:16:43.47,-375.98,538.09,779.79,107.71,11.83,7.04,
05/25/2025,21:16:43.49,-222.66,486.33,803.22,116.95,13.26,12.47,
05/25/2025,21:16:43.51,-309.57,514.16,893.07,105.79,22.35,23.23,
05/25/2025,21:16:43.53,-504.39,605.96,857.42,94.91,-7.38,20.12,
05/25/2025,21:16:43.55,-504.39,576.66,802.73,83.35,-12.23,-8.63,
05/25/2025,21:16:43.57,-308.59,583.98,764.65,74.02,11.34,-9.39,
05/25/2025,21:16:43.59,-287.11,614.75,771.48,60.85,-8.84,-3.20,
05/25/2025,21:16:43.61,-279.79,599.61,524.90,60.12,-5.37,2.84,
05/25/2025,21:16:43.63,-265.62,647.95,722.17,88.51,13.84,-1.46,
05/25/2025,21:16:43.65,-113.28,767.09,979.49,64.05,-60.82,21.04,
05/25/2025,21:16:43.67,-467.77,743.65,824.22,45.24,-42.04,13.57,
05/25/2025,21:16:43.69,-283.20,689.94,464.36,98.72,23.75,-2.16,
05/25/2025,21:16:43.71,-167.97,733.40,854.98,88.17,14.09,-1.28,
05/25/2025,21:16:43.73,-263.67,728.03,854.00,77.93,-65.15,4.97,
05/25/2025,21:16:43.75,-308.11,707.52,505.86,64.24,-71.37,-11.19,
05/25/2025,21:16:43.77,-263.67,733.40,531.74,73.99,-23.87,-25.30,
05/25/2025,21:16:43.79,-46.88,844.24,621.09,80.40,-95.91,-2.62,
05/25/2025,21:16:43.81,-202.64,789.06,654.79,69.94,-126.83,-8.11,
05/25/2025,21:16:43.83,-128.91,661.62,-909.18,41.13,-18.26,19.94,
05/25/2025,21:16:43.85,171.88,904.30,-243.65,69.85,112.10,-17.32,
05/25/2025,21:16:43.87,40.53,795.90,419.92,76.16,164.85,-15.55,
05/25/2025,21:16:43.89,-409.18,754.88,520.02,59.88,115.03,0.12,
05/25/2025,21:16:43.94,-180.18,954.59,300.29,82.50,7.16,3.87,
05/25/2025,21:16:43.96,-211.91,860.84,365.23,65.18,38.26,13.05,
05/25/2025,21:16:43.98,-266.11,916.99,372.56,45.34,60.43,10.82,
05/25/2025,21:16:44.00,-327.15,931.15,340.82,35.79,68.54,-13.96,
05/25/2025,21:16:44.02,-349.61,834.96,363.77,14.57,80.58,-35.67,
05/25/2025,21:16:44.04,-327.64,894.53,366.21,-12.74,40.52,-36.25,
05/25/2025,21:16:44.06,-260.74,846.19,317.87,-20.40,16.92,-44.97,
05/25/2025,21:16:44.08,-321.29,964.36,402.83,0.06,-31.98,-8.60,
05/25/2025,21:16:44.10,-224.61,821.78,339.84,37.74,-75.85,0.40,
05/25/2025,21:16:44.12,-198.73,929.69,303.22,32.90,-72.44,2.10,
05/25/2025,21:16:44.14,-198.24,732.42,291.02,45.15,-50.73,-25.82,
05/25/2025,21:16:44.16,-219.24,789.06,270.02,47.47,-37.62,-14.91,
05/25/2025,21:16:44.18,-229.98,779.79,267.58,51.40,-36.52,-10.49,
05/25/2025,21:16:44.20,-203.61,782.23,173.34,107.74,-58.08,-17.68,
05/25/2025,21:16:44.22,-215.33,816.41,153.81,20.98,-41.89,43.90,
05/25/2025,21:16:44.24,-255.86,914.55,147.46,55.40,-37.56,13.48,
05/25/2025,21:16:44.26,-298.83,982.91,213.38,45.64,-21.98,24.57,
05/25/2025,21:16:44.28,-401.37,993.65,246.58,59.48,-36.31,27.59,
05/25/2025,21:16:44.30,-304.69,980.47,115.72,99.33,-30.18,13.60,
05/25/2025,21:16:44.32,-167.48,1183.11,-50.29,95.18,49.30,52.32,
05/25/2025,21:16:44.34,-337.40,1062.50,71.78,112.53,88.57,51.34,
05/25/2025,21:16:44.36,-243.65,1061.04,-2.93,105.18,62.41,43.60,
05/25/2025,21:16:44.38,-191.41,999.02,-172.85,92.93,41.62,49.88,
05/25/2025,21:16:44.40,-314.45,859.86,-25.39,104.33,-31.89,46.86,
05/25/2025,21:16:44.45,-211.43,945.31,-241.21,117.74,-8.14,45.58,
05/25/2025,21:16:44.47,-125.49,933.59,-341.31,95.43,12.35,38.14,
05/25/2025,21:16:44.49,-148.44,839.84,-167.97,49.15,-10.82,16.34,
05/25/2025,21:16:44.51,-101.56,948.73,-284.67,43.69,-21.25,-5.85,
05/25/2025,21:16:44.53,-41.50,1074.22,-198.73,31.89,-46.25,11.80,
05/25/2025,21:16:44.55,108.89,1000.49,-123.54,11.28,-6.95,78.57,
05/25/2025,21:16:44.57,32.23,1109.38,-151.86,-1.74,-40.24,116.01,
05/25/2025,21:16:44.59,-66.41,1255.37,-136.23,-3.54,-17.68,80.03,
05/25/2025,21:16:44.61,-85.45,1135.25,79.10,-6.25,-22.56,35.91,
05/25/2025,21:16:44.63,56.15,1015.14,-114.26,5.30,-19.24,9.54,
05/25/2025,21:16:44.65,93.75,911.62,-75.68,7.84,13.23,1.04,
05/25/2025,21:16:44.67,-65.43,884.77,110.84,1.04,17.80,-4.66,
05/25/2025,21:16:44.69,-139.16,883.79,189.45,-5.12,-5.73,-7.38,
05/25/2025,21:16:44.71,-21.97,832.03,27.83,-13.35,-18.45,-5.64,
05/25/2025,21:16:44.73,-62.99,861.33,31.74,2.96,53.54,-13.20,
05/25/2025,21:16:44.75,-154.79,987.79,-51.27,11.83,57.35,-39.15,
05/25/2025,21:16:44.77,10.74,945.31,-242.68,3.90,21.95,-13.48,
05/25/2025,21:16:44.79,218.26,946.29,-460.94,9.21,52.20,0.37,
05/25/2025,21:16:44.81,264.65,874.02,-576.66,11.22,124.27,-28.23,
05/25/2025,21:16:44.83,249.02,928.71,-597.66,17.38,91.89,-48.26,
05/25/2025,21:16:44.85,151.86,983.89,-525.88,26.16,88.02,-1.22,
05/25/2025,21:16:44.87,-17.09,1064.45,-441.41,35.40,117.26,21.04,
05/25/2025,21:16:44.89,-129.39,921.39,-348.63,55.12,52.44,3.05,
05/25/2025,21:16:44.91,-36.13,903.32,-380.86,49.12,46.83,35.21,
05/25/2025,21:16:44.96,71.78,789.06,-356.45,44.73,32.53,58.20,
05/25/2025,21:16:44.98,31.74,833.98,-352.54,14.02,3.38,41.28,
05/25/2025,21:16:45.00,-41.02,1025.88,-368.65,4.91,-58.81,40.82,
05/25/2025,21:16:45.02,-22.95,1153.32,-420.90,44.66,-27.41,32.74,
05/25/2025,21:16:45.04,50.29,1027.34,-404.30,59.33,-5.67,43.20,
05/25/2025,21:16:45.06,231.93,889.16,-522.95,64.24,15.27,43.41,
05/25/2025,21:16:45.08,218.26,849.12,-432.13,45.79,35.43,35.43,
05/25/2025,21:16:45.10,182.13,924.80,-508.79,30.79,2.29,13.26,
05/25/2025,21:16:45.12,259.28,756.35,-466.31,14.97,-41.43,3.23,
05/25/2025,21:16:45.14,304.20,827.15,-609.86,6.07,-77.26,16.34,
05/25/2025,21:16:45.16,219.73,840.82,-507.32,-2.26,-66.46,21.49,
05/25/2025,21:16:45.18,146.48,895.02,-477.05,-4.54,-79.79,18.75,
05/25/2025,21:16:45.20,134.77,948.73,-489.26,3.63,-52.29,12.53,
05/25/2025,21:16:45.22,65.92,939.94,-333.98,-13.23,-44.88,1.25,
05/25/2025,21:16:45.24,60.55,945.80,-346.19,-13.75,-33.87,-6.92,
05/25/2025,21:16:45.26,-4.39,985.84,-307.13,-18.41,-44.09,-21.13,
05/25/2025,21:16:45.28,58.59,1045.41,-434.08,-17.99,-50.76,-16.62,
05/25/2025,21:16:45.30,34.67,949.71,-347.66,-15.12,-51.07,-32.77,
05/25/2025,21:16:45.32,83.01,897.95,-331.54,1.55,-23.60,-23.84,
05/25/2025,21:16:45.34,41.50,876.95,-388.67,-1.37,-4.42,-18.23,
05/25/2025,21:16:45.36,-0.98,871.58,-399.41,0.88,0.98,-15.24,
05/25/2025,21:16:45.38,-20.51,867.19,-369.63,-21.86,-43.60,-23.38,
05/25/2025,21:16:45.40,18.55,876.46,-417.97,-41.19,-51.92,-25.12,
05/25/2025,21:16:45.42,50.29,888.18,-325.68,-20.61,-39.63,-34.12,
05/25/2025,21:16:45.49,-130.86,910.64,-303.22,0.40,65.91,-16.46,
05/25/2025,21:16:45.51,-74.22,903.81,-373.05,-36.04,70.88,-40.58,
05/25/2025,21:16:45.53,-165.04,974.12,-137.70,-83.41,-13.84,-34.73,
05/25/2025,21:16:45.55,-18.07,936.52,-330.08,-72.41,-61.65,-32.87,
05/25/2025,21:16:45.57,-23.44,936.04,-349.12,-60.18,-35.27,-24.70,
05/25/2025,21:16:45.59,-23.93,892.09,-317.38,-46.31,-25.52,-16.59,
05/25/2025,21:16:45.61,0.00,1010.74,-529.30,-12.56,14.02,5.00,
05/25/2025,21:16:45.63,-91.31,983.89,-404.30,-28.72,38.66,5.15,
05/25/2025,21:16:45.65,34.67,929.20,-276.86,-17.59,48.05,11.68,
05/25/2025,21:16:45.67,-124.51,973.63,-314.45,-16.59,-5.70,29.39,
05/25/2025,21:16:45.69,-63.96,773.93,-109.86,-24.21,-20.18,24.60,
05/25/2025,21:16:45.71,-70.31,903.81,-218.75,-24.63,-36.71,-0.70,
05/25/2025,21:16:45.73,-147.95,1066.89,-151.37,-22.77,-27.80,5.37,
05/25/2025,21:16:45.75,-168.46,951.66,-152.83,0.34,-18.48,-11.95,
05/25/2025,21:16:45.77,-124.51,898.44,-200.20,4.66,-18.20,-18.45,
05/25/2025,21:16:45.79,-72.27,943.85,-224.61,-2.04,-28.05,-22.74,
05/25/2025,21:16:45.81,-92.29,896.97,-195.31,-7.80,-17.77,-9.15,
05/25/2025,21:16:45.83,-85.45,868.16,-178.71,0.76,-21.68,4.54,
05/25/2025,21:16:45.85,-92.29,911.13,-157.71,-1.83,-33.41,18.38,
05/25/2025,21:16:45.87,-57.13,988.77,-234.38,-1.19,-47.20,17.10,
05/25/2025,21:16:45.89,-99.61,933.11,-201.17,5.03,-39.33,13.99,
05/25/2025,21:16:45.91,-110.35,984.38,-226.56,8.26,-47.71,-16.10,
05/25/2025,21:16:45.93,-91.80,985.35,-228.03,3.23,-41.74,-24.57,
05/25/2025,21:16:45.99,-64.45,968.75,-232.42,-2.38,-38.05,-2.29,
05/25/2025,21:16:46.01,-75.68,1028.32,-206.05,-13.87,-35.79,-13.54,
05/25/2025,21:16:46.03,-138.67,971.19,-231.93,-9.51,-31.40,-11.01,
05/25/2025,21:16:46.05,-84.96,988.28,-147.95,-13.54,-13.26,-0.61,
05/25/2025,21:16:46.07,-169.92,947.27,-212.89,-20.64,-13.38,-4.42,
05/25/2025,21:16:46.09,-80.08,975.59,-148.44,-26.01,-43.35,10.09,
05/25/2025,21:16:46.11,-93.26,992.19,-176.27,-21.98,-33.20,15.98,
05/25/2025,21:16:46.13,-176.27,1008.30,-182.13,-13.72,-10.49,15.03,
05/25/2025,21:16:46.15,-224.61,1045.90,-213.87,-9.12,1.07,45.76,
05/25/2025,21:16:46.17,-57.13,971.19,-147.95,-19.57,9.63,61.62,
05/25/2025,21:16:46.19,-14.16,904.79,-88.87,-20.00,1.59,64.30,
05/25/2025,21:16:46.21,58.11,996.09,-104.98,-31.28,-23.29,39.70,
05/25/2025,21:16:46.23,-18.55,954.10,-102.05,-35.37,-30.76,46.52,
05/25/2025,21:16:46.25,-38.09,1088.87,-4.88,-8.84,-60.15,21.49,
05/25/2025,21:16:46.27,20.51,961.43,-124.51,15.24,-70.67,32.93,
05/25/2025,21:16:46.29,48.83,911.13,-96.19,-22.10,-81.65,31.80,
05/25/2025,21:16:46.31,32.23,913.09,-77.64,-51.52,-87.26,27.01,
05/25/2025,21:16:46.33,39.55,945.31,-60.06,-52.77,-89.21,-3.75,
05/25/2025,21:16:46.35,-26.37,965.33,-103.03,-26.80,-43.20,-29.36,
05/25/2025,21:16:46.37,21.48,1002.44,-76.66,-40.15,-18.99,-21.19,
05/25/2025,21:16:46.39,26.37,897.95,1.95,-49.94,-24.76,-15.76,
05/25/2025,21:16:46.41,-45.41,1004.39,4.39,-42.90,-25.98,-32.65,
05/25/2025,21:16:46.43,-22.95,958.50,-5.37,-34.79,-15.34,-30.73,
05/25/2025,21:16:46.45,-110.84,933.11,16.11,-27.68,-10.95,-22.04,
05/25/2025,21:16:46.50,-53.71,1034.18,41.50,-43.51,-30.85,-26.34,
05/25/2025,21:16:46.52,-58.11,966.31,51.27,-42.53,-7.74,-16.74,
05/25/2025,21:16:46.54,-107.91,1005.86,140.62,-8.41,8.17,-26.83,
05/25/2025,21:16:46.56,-90.82,935.55,97.17,44.15,-1.77,-33.26,
05/25/2025,21:16:46.58,-183.59,1029.30,86.43,13.35,-12.80,-7.10,
05/25/2025,21:16:46.60,-102.05,953.12,83.01,75.15,-34.54,-0.21,
05/25/2025,21:16:46.62,-60.06,938.96,45.90,107.07,-48.96,-9.02,
05/25/2025,21:16:46.64,-44.92,996.09,11.23,107.04,-65.61,-16.22,
05/25/2025,21:16:46.66,-42.97,964.84,-78.61,107.68,-81.74,-15.67,
05/25/2025,21:16:46.68,-27.83,920.41,-62.50,86.83,-58.72,6.74,
05/25/2025,21:16:46.70,-19.04,891.60,-31.25,55.49,-13.14,25.15,
05/25/2025,21:16:46.72,-205.57,935.06,-309.08,-45.12,-118.93,18.29,
05/25/2025,21:16:46.74,-74.71,988.28,-49.80,-16.31,-31.19,-9.79,
05/25/2025,21:16:46.76,184.08,1639.16,390.62,-4.73,-356.77,9.42,
05/25/2025,21:16:46.78,-2.93,979.98,-55.66,19.70,-11.13,-9.97,
05/25/2025,21:16:46.80,-53.71,1036.13,-133.30,14.09,20.06,-4.24,
05/25/2025,21:16:46.82,-56.15,1017.58,-125.00,18.45,24.97,1.98,
05/25/2025,21:16:46.84,-132.32,928.71,-178.71,16.59,15.70,5.91,
05/25/2025,21:16:46.86,-79.10,859.86,-190.92,30.00,6.19,15.95,
05/25/2025,21:16:46.88,-86.91,896.97,-145.02,37.07,2.80,33.05,
05/25/2025,21:16:46.90,-101.07,947.75,-172.36,28.75,-1.59,41.01,
05/25/2025,21:16:46.92,-60.06,1010.74,-187.01,38.54,18.63,21.34,
05/25/2025,21:16:46.94,-72.75,990.72,-155.76,21.07,19.24,17.07,
05/25/2025,21:16:46.96,-92.29,1018.55,-210.94,-0.85,22.96,8.87,
05/25/2025,21:16:47.01,-99.61,907.71,-221.19,-11.68,5.30,-10.43,
05/25/2025,21:16:47.03,-88.87,956.05,-187.01,-13.66,-4.02,-7.65,
05/25/2025,21:16:47.05,-71.29,967.77,-195.31,-15.91,-1.65,-9.27,
05/25/2025,21:16:47.07,-119.14,917.48,-154.30,-9.09,15.49,-14.63,
05/25/2025,21:16:47.09,-213.87,1029.30,21.00,-109.66,26.83,-157.93,
05/25/2025,21:16:47.11,-71.78,1047.36,-160.64,-52.38,16.95,-104.60,
05/25/2025,21:16:47.13,-142.58,942.38,-151.86,-30.12,9.05,-71.31,
05/25/2025,21:16:47.15,-248.54,936.52,-90.33,-37.80,-2.59,-66.10,
05/25/2025,21:16:47.17,-135.74,1005.86,28.32,-13.75,-31.01,-12.32,
05/25/2025,21:16:47.19,-155.27,915.53,-63.96,-7.84,-36.92,4.45,
05/25/2025,21:16:47.21,-175.78,958.01,-98.63,-1.28,-27.44,11.59,
05/25/2025,21:16:47.23,-183.11,974.12,-4.88,-2.13,-26.83,14.12,
05/25/2025,21:16:47.25,-152.34,971.68,-47.85,-7.41,-46.43,19.73,
05/25/2025,21:16:47.27,-149.41,992.19,-82.52,2.62,-36.37,20.21,
05/25/2025,21:16:47.29,-192.87,995.12,-27.34,12.56,-36.01,13.32,
05/25/2025,21:16:47.31,-175.78,995.61,-56.64,5.61,-41.13,3.20,
05/25/2025,21:16:47.33,-145.02,997.56,8.30,6.49,-38.08,-4.39,
05/25/2025,21:16:47.35,-145.51,991.21,52.25,-3.57,-56.25,-6.86,
05/25/2025,21:16:47.37,-177.73,961.43,-24.41,-22.38,-69.66,-3.08,
05/25/2025,21:16:47.39,-184.08,1044.92,-4.88,-28.66,-78.66,-1.01,
05/25/2025,21:16:47.41,-141.60,945.31,-101.56,-16.40,-44.24,22.29,
05/25/2025,21:16:47.43,-205.08,983.40,-54.20,18.23,-8.57,-3.41,
05/25/2025,21:16:47.45,-204.10,931.15,-59.08,10.82,-32.01,8.32,
05/25/2025,21:16:47.47,-231.93,957.03,-30.76,14.45,-20.46,9.15,
05/25/2025,21:16:47.52,-208.50,969.73,4.39,2.90,-22.80,20.46,
05/25/2025,21:16:47.54,-201.17,954.59,33.20,11.86,-20.43,14.88,
05/25/2025,21:16:47.56,-141.11,923.83,41.99,11.68,-18.57,18.41,
05/25/2025,21:16:47.58,-180.66,958.98,72.27,2.50,-27.07,26.52,
05/25/2025,21:16:47.60,-179.69,979.00,92.77,-1.37,-30.88,23.54,
05/25/2025,21:16:47.62,-164.06,960.45,-7.32,4.91,-36.46,9.05,
05/25/2025,21:16:47.64,-215.33,998.05,-151.37,52.16,-15.18,-20.85,
05/25/2025,21:16:47.66,-223.14,1049.32,-65.92,87.32,-1.13,-45.49,
05/25/2025,21:16:47.68,-208.98,1043.95,-100.59,92.62,-24.30,-43.14,
05/25/2025,21:16:47.70,-174.32,1086.43,-173.83,80.24,-50.73,-39.70,
05/25/2025,21:16:47.72,-309.08,1153.32,-179.20,59.15,-52.59,-40.06,
05/25/2025,21:16:47.74,-283.20,1090.82,-247.07,29.15,-66.46,-49.60,
05/25/2025,21:16:47.76,-201.66,1042.97,-272.46,-1.25,-79.36,-34.33,
05/25/2025,21:16:47.78,-208.50,943.85,-183.11,-9.73,-25.67,-11.37,
05/25/2025,21:16:47.80,-344.24,730.96,-35.16,-30.46,3.05,-50.27,
05/25/2025,21:16:47.82,-395.51,726.07,-47.85,-52.26,-18.90,-44.42,
05/25/2025,21:16:47.84,-322.27,740.23,-112.79,-91.62,-36.77,-35.24,
05/25/2025,21:16:47.86,-53.71,1051.27,-116.70,-136.31,33.72,-179.79,
05/25/2025,21:16:47.88,-271.00,1120.12,-20.02,-57.23,50.12,-107.23,
05/25/2025,21:16:47.90,-405.76,828.61,-146.00,-58.02,97.50,-103.11,
05/25/2025,21:16:47.92,-401.37,840.33,81.54,-0.70,51.74,-126.95,
05/25/2025,21:16:47.94,-424.80,1063.96,-62.99,63.90,-12.53,-102.77,
05/25/2025,21:16:47.96,-424.32,995.12,-76.66,138.38,8.66,-17.84,
05/25/2025,21:16:47.98,-454.10,921.39,65.92,142.04,-6.59,8.14,
05/25/2025,21:16:48.03,-593.26,696.78,-130.37,100.82,45.64,-50.18,
05/25/2025,21:16:48.05,-383.30,960.45,144.53,46.28,2.80,-48.54,
05/25/2025,21:16:48.07,-685.06,455.08,-463.87,7.71,16.74,-56.10,
05/25/2025,21:16:48.09,-415.04,796.39,-174.32,23.90,-11.89,-45.21,
05/25/2025,21:16:48.11,-389.65,877.44,-179.20,15.70,29.76,-38.48,
05/25/2025,21:16:48.13,-762.70,622.56,91.80,4.05,82.96,-40.18,
05/25/2025,21:16:48.15,-340.82,1409.67,60.55,-1.98,194.45,-43.51,
05/25/2025,21:16:48.17,-513.18,577.15,-312.99,-14.66,138.93,-28.32,
05/25/2025,21:16:48.19,-607.91,672.85,-75.20,-22.04,-2.77,-12.62,
05/25/2025,21:16:48.21,-483.89,764.65,-309.08,-32.90,42.04,-4.42,
05/25/2025,21:16:48.23,-418.95,797.85,-287.60,-3.57,37.90,16.43,
05/25/2025,21:16:48.25,-567.87,752.44,-244.14,-26.01,-100.82,46.71,
05/25/2025,21:16:48.27,-531.25,720.21,-134.28,-28.99,-86.74,51.62,
05/25/2025,21:16:48.29,-445.31,682.13,-71.78,-25.91,-27.35,49.42,
05/25/2025,21:16:48.31,-516.60,733.40,-72.75,-39.66,34.33,45.00,
05/25/2025,21:16:48.33,-542.48,761.23,-106.45,-31.19,74.97,23.32,
05/25/2025,21:16:48.36,-532.71,770.51,-134.28,-28.08,115.06,-4.73,
05/25/2025,21:16:48.38,-334.47,903.32,-81.05,-44.63,20.52,25.67,
05/25/2025,21:16:48.40,-471.68,832.03,-172.36,-58.90,0.18,40.27,
05/25/2025,21:16:48.42,-388.18,906.74,-192.87,-56.31,15.52,52.71,
05/25/2025,21:16:48.44,-555.18,927.73,-229.00,-38.63,44.88,47.38,
05/25/2025,21:16:48.46,-489.26,905.27,-154.30,-36.68,-5.21,53.99,
05/25/2025,21:16:48.48,-527.34,913.57,-219.73,-34.02,-20.70,36.65,
05/25/2025,21:16:48.50,-510.25,932.13,-213.38,-18.14,7.56,22.84,
05/25/2025,21:16:48.55,-232.42,1054.69,-171.88,-20.95,-65.46,44.30,
05/25/2025,21:16:48.57,-297.36,1095.70,70.31,-20.30,-85.91,48.32,
05/25/2025,21:16:48.59,-318.36,1109.38,136.72,-25.88,-75.34,24.15,
05/25/2025,21:16:48.61,-417.97,1049.80,92.29,-28.23,-68.41,23.32,
05/25/2025,21:16:48.63,-385.74,975.10,-3.42,-7.93,-12.99,17.44,
05/25/2025,21:16:48.65,-526.37,967.77,9.77,0.67,9.63,11.16,
05/25/2025,21:16:48.67,-454.59,831.05,-72.27,0.27,22.29,-5.95,
05/25/2025,21:16:48.70,-413.57,898.44,-25.88,2.90,11.13,-9.88,
05/25/2025,21:16:48.72,-354.49,793.46,-195.31,1.49,26.62,0.03,
05/25/2025,21:16:48.74,-638.18,792.97,-20.51,-16.52,-13.63,27.74,
05/25/2025,21:16:48.76,-29.30,787.11,-442.38,-8.23,-96.49,28.69,
05/25/2025,21:16:48.78,-294.43,945.31,-537.11,16.43,-78.60,36.43,
05/25/2025,21:16:48.80,-382.32,861.82,3.91,48.48,-2.56,44.45,
05/25/2025,21:16:48.82,165.04,652.34,-3.91,55.34,69.73,47.32,
05/25/2025,21:16:48.84,-401.86,1082.52,36.13,-0.88,-43.90,81.37,
05/25/2025,21:16:48.86,-101.07,928.22,-188.48,-37.62,-86.34,69.36,
05/25/2025,21:16:48.88,-132.32,858.89,-283.20,-20.85,-102.41,76.92,
05/25/2025,21:16:48.90,-88.38,916.02,-294.92,1.04,-97.65,68.99,
05/25/2025,21:16:48.92,-124.02,1023.44,-168.95,0.91,-93.63,68.20,
05/25/2025,21:16:48.94,-137.70,1037.11,-139.65,-7.71,-61.46,50.34,
05/25/2025,21:16:48.96,-62.50,1018.55,-211.91,-3.48,-57.80,58.60,
05/25/2025,21:16:48.98,-120.12,990.72,-103.52,14.85,-27.71,54.97,
05/25/2025,21:16:49.00,-25.88,984.86,-26.86,13.41,6.68,45.18,
05/25/2025,21:16:49.02,-110.84,1013.18,-0.49,10.30,38.60,28.08,
05/25/2025,21:16:49.08,10.25,932.62,-91.31,21.22,52.29,0.18,
05/25/2025,21:16:49.10,-76.66,908.69,-213.38,14.91,15.06,11.40,
05/25/2025,21:16:49.12,-29.30,902.34,-106.93,11.34,19.82,7.07,
05/25/2025,21:16:49.14,-78.61,947.27,-79.10,10.61,22.74,3.66,
05/25/2025,21:16:49.16,-37.60,963.38,-44.92,8.93,17.71,-1.71,
05/25/2025,21:16:49.18,92.29,924.80,-46.88,1.59,-29.21,19.15,
05/25/2025,21:16:49.20,17.58,1068.85,32.23,3.99,-18.84,26.62,
05/25/2025,21:16:49.22,-30.27,1146.00,60.06,-18.45,-9.76,12.07,
05/25/2025,21:16:49.24,-59.57,1083.50,-11.23,-35.15,-38.48,12.16,
05/25/2025,21:16:49.26,-47.36,1045.41,-86.91,-50.46,-68.11,7.71,
05/25/2025,21:16:49.28,34.18,958.50,-46.39,-50.09,-85.09,14.48,
05/25/2025,21:16:49.30,-72.75,940.92,-67.38,-51.83,-144.82,15.85,
05/25/2025,21:16:49.32,-158.69,968.26,-171.39,-38.41,-132.53,6.10,
05/25/2025,21:16:49.34,4.39,981.93,-24.41,-15.64,-113.38,-5.27,
05/25/2025,21:16:49.36,53.71,986.82,45.90,0.30,-84.15,3.11,
05/25/2025,21:16:49.38,-70.31,1005.86,145.51,-4.24,-99.91,11.25,
05/25/2025,21:16:49.40,-30.76,997.07,98.14,-12.68,-80.67,4.66,
05/25/2025,21:16:49.42,-66.41,1052.73,54.69,-2.96,-56.62,-10.67,
05/25/2025,21:16:49.44,23.44,959.96,41.50,2.41,-34.36,-7.35,
05/25/2025,21:16:49.46,-12.70,932.62,-22.46,0.73,0.98,-10.85,
05/25/2025,21:16:49.48,-17.09,943.85,-44.43,11.13,38.60,-11.92,
05/25/2025,21:16:49.50,-21.97,946.29,9.77,4.45,-29.66,7.16,
05/25/2025,21:16:49.52,-60.06,1019.53,-21.48,4.57,-12.47,0.70,
05/25/2025,21:16:49.54,-38.57,1041.50,-10.25,6.10,24.97,-7.80,
05/25/2025,21:16:49.59,-35.16,973.14,-23.93,10.64,13.57,-10.73,
05/25/2025,21:16:49.61,3.91,967.77,54.20,9.57,13.54,-6.80,
05/25/2025,21:16:49.63,-19.04,983.40,37.60,3.14,-9.12,-3.72,
05/25/2025,21:16:49.65,-36.13,1000.00,3.91,3.84,9.42,-1.95,
05/25/2025,21:16:49.67,-61.04,993.16,-15.62,-1.01,13.41,-4.33,
05/25/2025,21:16:49.69,-62.01,982.42,-100.10,1.16,34.33,-6.89,
05/25/2025,21:16:49.71,-70.31,989.26,-76.17,6.22,28.20,-4.91,
05/25/2025,21:16:49.73,-97.66,1005.37,-123.54,3.87,19.36,-8.51,
05/25/2025,21:16:49.75,-86.43,1008.79,-83.50,11.07,32.74,-10.73,
05/25/2025,21:16:49.77,-80.57,1029.30,-88.38,16.28,42.38,-9.18,
05/25/2025,21:16:49.79,-112.30,1099.61,-156.25,17.07,90.49,-18.78,
05/25/2025,21:16:49.81,-201.17,1104.98,-64.45,12.38,23.99,-6.16,
05/25/2025,21:16:49.83,-193.85,1015.14,-252.44,-1.49,6.98,-14.51,
05/25/2025,21:16:49.85,-183.59,998.54,-179.69,8.14,23.29,-20.91,
05/25/2025,21:16:49.87,-167.48,969.73,-120.12,9.39,6.25,-26.65,
05/25/2025,21:16:49.89,-142.58,975.59,-79.59,16.13,30.49,-27.74,
05/25/2025,21:16:49.91,-157.71,955.08,7.32,8.45,-6.10,-20.73,
05/25/2025,21:16:49.93,-182.13,963.38,-101.07,-4.66,-9.70,-19.45,
05/25/2025,21:16:49.95,-214.36,936.52,-17.09,-9.91,-31.95,-16.43,
05/25/2025,21:16:49.97,-158.20,928.22,-30.76,-15.95,-41.19,-14.39,
05/25/2025,21:16:49.99,-123.54,932.62,13.18,1.86,-22.84,-17.01,
05/25/2025,21:16:50.01,-150.39,925.29,40.04,1.77,-6.52,-16.74,
05/25/2025,21:16:50.03,-190.43,942.87,-2.44,15.21,12.87,-24.73,
05/25/2025,21:16:50.05,-131.84,929.20,97.66,29.85,36.98,-29.54,
05/25/2025,21:16:50.10,-184.08,914.55,77.64,19.57,-6.55,25.85,
05/25/2025,21:16:50.12,-204.10,934.08,-18.07,24.97,5.55,14.63,
05/25/2025,21:16:50.14,-163.09,960.94,75.68,30.00,14.97,5.52,
05/25/2025,21:16:50.16,-69.34,921.39,76.17,27.44,32.29,-2.29,
05/25/2025,21:16:50.18,-60.06,916.99,113.28,23.23,68.60,6.74,
05/25/2025,21:16:50.20,-148.93,932.13,-28.81,16.74,105.64,6.77,
05/25/2025,21:16:50.22,-61.04,892.58,-22.95,16.46,155.82,7.56,
05/25/2025,21:16:50.24,-9.77,918.46,14.16,-11.77,153.72,22.23,
05/25/2025,21:16:50.26,-129.39,988.77,-183.59,-37.10,126.92,35.85,
05/25/2025,21:16:50.28,-206.05,1075.20,-305.18,-27.87,86.59,21.40,
05/25/2025,21:16:50.30,-109.86,1055.66,-243.16,-7.84,54.02,4.88,
05/25/2025,21:16:50.32,23.44,1000.49,-58.11,16.37,74.66,2.23,
05/25/2025,21:16:50.34,-12.70,989.75,-106.93,15.70,75.18,3.17,
05/25/2025,21:16:50.36,-66.89,980.96,-139.16,4.42,57.38,0.73,
05/25/2025,21:16:50.38,52.25,972.17,-95.21,7.44,45.27,0.18,
05/25/2025,21:16:50.40,-10.25,1004.88,-126.46,33.23,67.23,7.84,
05/25/2025,21:16:50.42,-30.76,981.45,-158.69,34.27,47.23,-0.34,
05/25/2025,21:16:50.44,46.88,945.80,-200.20,37.29,49.54,-2.07,
05/25/2025,21:16:50.46,31.25,988.77,-128.91,30.76,55.46,9.88,
05/25/2025,21:16:50.48,-126.95,1050.29,19.53,17.53,26.92,6.25,
05/25/2025,21:16:50.50,-6.84,985.84,-52.25,7.90,32.16,-5.98,
05/25/2025,21:16:50.52,-32.23,996.58,-75.68,12.53,60.12,-15.73,
05/25/2025,21:16:50.54,-10.25,954.59,-78.61,1.77,48.87,-15.73,
05/25/2025,21:16:50.56,-31.74,932.13,-205.08,6.92,49.88,-10.76,
05/25/2025,21:16:50.61,7.81,937.99,-217.77,6.25,8.51,-12.56,
05/25/2025,21:16:50.63,-4.39,996.58,-201.17,2.50,20.85,-9.18,
05/25/2025,21:16:50.65,-13.67,991.70,-168.46,-2.77,8.23,-9.30,
05/25/2025,21:16:50.67,21.97,961.91,-211.43,-6.07,9.85,-4.82,
05/25/2025,21:16:50.69,21.48,967.77,-267.09,-7.96,15.91,-3.57,
05/25/2025,21:16:50.71,-56.15,1027.83,-236.33,-0.52,9.18,-4.36,
05/25/2025,21:16:50.73,-54.69,996.58,-203.61,6.10,8.81,-4.60,
05/25/2025,21:16:50.75,-49.80,938.96,-184.08,-0.58,-0.09,-3.38,
05/25/2025,21:16:50.77,-42.97,925.29,-164.55,-4.48,-0.64,-4.63,
05/25/2025,21:16:50.79,-57.62,934.57,-200.20,-10.12,-3.14,-1.52,
05/25/2025,21:16:50.81,-38.57,957.52,-170.90,0.34,3.78,-1.46,
05/25/2025,21:16:50.83,-45.41,944.82,-121.09,-2.87,18.48,-1.80,
05/25/2025,21:16:50.85,-23.44,952.15,-135.25,-10.27,8.38,-2.32,
05/25/2025,21:16:50.87,-60.55,955.57,-161.13,-10.43,8.72,-0.61,
05/25/2025,21:16:50.89,-104.49,972.17,-179.69,-4.70,14.48,-4.12,
05/25/2025,21:16:50.91,-64.94,952.64,-235.35,-0.12,15.37,-5.18,
05/25/2025,21:16:50.93,-8.30,967.77,-194.82,-1.16,16.25,-3.96,
05/25/2025,21:16:50.95,-93.26,979.98,-146.48,-0.76,25.15,-3.75,
05/25/2025,21:16:50.97,-91.31,979.49,-192.38,3.81,12.77,-6.52,
05/25/2025,21:16:50.99,-46.88,973.63,-217.29,13.38,7.13,-5.82,
05/25/2025,21:16:51.01,-35.64,927.73,-179.20,12.35,-0.34,-8.66,
05/25/2025,21:16:51.03,-38.57,957.03,-103.03,6.74,16.80,0.67,
05/25/2025,21:16:51.05,-80.57,986.33,-153.81,5.52,19.27,-4.24,
05/25/2025,21:16:51.07,-69.34,966.80,-185.55,4.88,12.23,-8.63,
05/25/2025,21:16:51.12,-83.50,972.17,-178.71,7.99,17.01,-6.52,
05/25/2025,21:16:51.14,-96.68,979.00,-194.82,7.16,8.20,-4.05,
05/25/2025,21:16:51.16,-87.89,998.05,-178.22,2.41,7.87,-6.92,
05/25/2025,21:16:51.18,-69.82,967.77,-153.81,1.04,18.23,-3.20,
05/25/2025,21:16:51.20,-77.64,959.47,-184.57,-7.44,15.21,-1.89,
05/25/2025,21:16:51.22,-63.48,958.01,-185.06,-8.57,13.23,-2.38,
05/25/2025,21:16:51.24,-63.48,919.92,-211.43,-10.21,9.94,0.91,
05/25/2025,21:16:51.26,-37.11,899.90,-223.14,-11.68,16.01,5.21,
05/25/2025,21:16:51.28,-56.64,968.26,-249.51,-9.33,8.05,3.45,
05/25/2025,21:16:51.30,-41.50,970.21,-182.62,-8.32,-0.79,4.48,
05/25/2025,21:16:51.32,16.11,929.69,-191.41,-6.07,-29.54,15.61,
05/25/2025,21:16:51.34,26.86,951.66,-194.82,1.37,-20.27,15.91,
05/25/2025,21:16:51.36,-11.23,965.82,-167.48,0.70,-16.59,15.30,
05/25/2025,21:16:51.38,22.95,941.89,-162.11,-1.83,-3.41,12.74,
05/25/2025,21:16:51.40,-45.90,969.24,-189.45,-4.21,8.35,6.01,
05/25/2025,21:16:51.42,-53.71,943.36,-248.54,-0.55,21.40,-1.86,
05/25/2025,21:16:51.44,-17.09,930.66,-240.23,9.79,24.57,-2.29,
05/25/2025,21:16:51.46,-7.32,930.18,-233.40,13.51,29.24,0.27,
05/25/2025,21:16:51.48,-58.59,952.15,-255.37,10.98,35.95,5.82,
05/25/2025,21:16:51.50,-96.19,1029.79,-268.07,14.15,36.71,-4.66,
05/25/2025,21:16:51.52,-41.99,1046.88,-221.19,14.76,24.36,-7.84,
05/25/2025,21:16:51.54,-34.67,1008.79,-211.91,11.25,12.07,-5.52,
05/25/2025,21:16:51.56,-33.20,975.10,-236.33,7.62,11.83,-8.32,
05/25/2025,21:16:51.58,-56.64,967.77,-248.05,9.36,9.45,-4.76,
05/25/2025,21:16:51.63,-21.97,906.74,-221.68,9.66,19.51,-10.18,
05/25/2025,21:16:51.65,-49.80,894.53,-183.59,7.10,22.99,0.88,
05/25/2025,21:16:51.67,-74.22,931.15,-214.36,-0.46,18.60,-4.09,
05/25/2025,21:16:51.70,-50.29,922.85,-261.72,-2.65,13.99,-3.05,
05/25/2025,21:16:51.72,-50.29,924.32,-305.18,-1.22,18.32,-0.91,
05/25/2025,21:16:51.74,-47.85,918.46,-299.32,11.86,3.84,-0.58,
05/25/2025,21:16:51.76,-44.92,914.06,-267.09,20.03,8.66,5.67,
05/25/2025,21:16:51.78,-68.85,932.62,-190.92,18.26,10.21,4.76,
05/25/2025,21:16:51.80,-88.87,958.01,-205.08,15.06,9.66,8.87,
05/25/2025,21:16:51.82,-55.66,953.61,-265.62,3.72,12.07,1.89,
05/25/2025,21:16:51.84,-43.95,955.57,-256.84,7.77,3.54,5.03,
05/25/2025,21:16:51.86,-27.83,948.73,-228.03,11.16,2.74,5.21,
05/25/2025,21:16:51.88,-61.52,975.10,-237.30,7.53,8.45,7.59,
05/25/2025,21:16:51.90,-83.98,990.72,-235.35,8.17,13.54,5.58,
05/25/2025,21:16:51.92,-47.85,949.71,-230.47,7.44,8.63,3.60,
05/25/2025,21:16:51.94,-34.18,932.13,-286.13,0.85,5.21,4.60,
05/25/2025,21:16:51.96,-27.34,945.80,-297.85,3.48,7.07,4.85,
05/25/2025,21:16:51.98,-62.01,922.85,-285.16,1.86,0.18,4.97,
05/25/2025,21:16:52.00,-63.96,928.22,-319.82,1.52,-1.40,1.95,
05/25/2025,21:16:52.02,-42.97,894.53,-251.46,5.79,-0.85,0.58,
05/25/2025,21:16:52.04,-7.32,866.21,-202.64,5.46,-2.13,7.62,
05/25/2025,21:16:52.06,-23.93,907.71,-194.82,-0.49,-3.14,14.27,
05/25/2025,21:16:52.08,-39.55,939.94,-219.24,-2.01,-4.73,15.30,
05/25/2025,21:16:52.10,-49.32,978.52,-284.67,-4.24,0.49,12.90,
05/25/2025,21:16:52.15,-16.60,993.65,-266.11,8.90,-1.65,5.95,
05/25/2025,21:16:52.17,-5.37,1001.95,-273.93,11.74,-3.60,11.49,
05/25/2025,21:16:52.19,-29.79,1023.93,-228.52,8.45,0.91,2.80,
05/25/2025,21:16:52.21,-73.73,1025.88,-178.22,2.93,-1.13,-0.85,
05/25/2025,21:16:52.23,-75.68,1001.95,-232.42,-0.27,-1.65,-6.89,
05/25/2025,21:16:52.25,-62.01,983.40,-200.68,0.64,1.80,-8.57,
05/25/2025,21:16:52.27,-12.21,956.54,-170.41,-1.43,3.93,-7.93,
05/25/2025,21:16:52.29,-43.46,953.12,-221.68,-0.67,7.96,-6.31,
05/25/2025,21:16:52.31,-33.20,956.54,-209.96,-0.21,13.17,-5.43,
05/25/2025,21:16:52.33,-54.20,941.89,-221.19,-1.71,14.39,-3.54,
05/25/2025,21:16:52.35,-44.43,904.30,-230.96,-0.76,10.85,-10.09,
05/25/2025,21:16:52.37,-66.41,898.44,-228.52,-0.03,9.70,-8.26,
05/25/2025,21:16:52.39,-35.16,895.51,-219.24,-4.05,15.58,-9.88,
05/25/2025,21:16:52.41,-39.06,880.86,-243.16,-5.49,18.66,-3.17,
05/25/2025,21:16:52.43,-18.07,882.32,-210.94,-8.57,11.13,-4.33,
05/25/2025,21:16:52.45,11.72,916.50,-222.17,-15.06,4.60,0.98,
05/25/2025,21:16:52.47,49.32,978.52,-288.09,-23.32,8.63,-2.65,
05/25/2025,21:16:52.49,-0.98,1021.97,-323.73,-23.05,7.04,-6.10,
05/25/2025,21:16:52.51,31.25,1016.60,-276.37,-13.96,2.99,-0.88,
05/25/2025,21:16:52.53,48.83,1032.71,-254.39,-10.27,1.83,-2.74,
05/25/2025,21:16:52.55,26.86,1031.25,-250.00,-11.98,-0.15,-6.89,
05/25/2025,21:16:52.57,9.77,1021.00,-253.91,-13.05,-0.76,-8.08,
05/25/2025,21:16:52.59,-7.32,988.77,-243.16,-4.88,1.98,-10.40,
05/25/2025,21:16:52.61,10.74,938.96,-238.77,2.29,3.26,-8.99,
05/25/2025,21:16:52.66,-55.66,923.34,-112.79,-1.28,2.90,2.62,
05/25/2025,21:16:52.68,-41.02,910.64,-168.46,-4.54,4.48,-8.38,
05/25/2025,21:16:52.70,-17.58,902.83,-103.03,-12.84,11.16,1.49,
05/25/2025,21:16:52.72,-18.07,915.53,-134.77,-19.21,5.09,0.06,
05/25/2025,21:16:52.74,-191.41,818.36,-147.95,-23.63,-4.94,-7.07,
05/25/2025,21:16:52.76,-167.48,858.89,-149.90,-15.76,-1.62,-4.79,
