rtcDate,rtcTime,aX,aY,aZ,gX,gY,gZ,
05/25/2025,21:19:40.95,5.86,-1016.60,-7.32,1.37,0.55,-3.35,
05/25/2025,21:19:41.02,10.25,-1019.53,3.42,-0.15,0.98,-2.26,
05/25/2025,21:19:41.04,23.44,-1021.00,-3.91,-0.43,0.00,-1.62,
05/25/2025,21:19:41.06,6.84,-1027.83,-5.37,0.52,1.43,-0.09,
05/25/2025,21:19:41.08,-3.91,-1025.88,-7.81,-0.12,1.22,0.70,
05/25/2025,21:19:41.10,-4.39,-1008.79,-6.84,2.77,0.73,3.81,
05/25/2025,21:19:41.12,0.49,-1036.62,-3.42,2.77,2.07,-2.01,
05/25/2025,21:19:41.14,6.35,-1023.93,-8.30,-1.04,1.19,-4.82,
05/25/2025,21:19:41.16,15.14,-1027.34,0.98,0.64,2.68,-4.54,
05/25/2025,21:19:41.18,1.95,-1021.48,-6.84,1.16,2.38,2.74,
05/25/2025,21:19:41.20,2.44,-1028.81,-6.35,0.37,2.04,-0.37,
05/25/2025,21:19:41.22,11.23,-1028.32,-7.32,2.16,1.74,-0.18,
05/25/2025,21:19:41.24,3.42,-1024.41,-2.93,1.16,2.35,-1.55,
05/25/2025,21:19:41.26,-0.49,-1033.69,-0.98,1.37,3.32,-1.77,
05/25/2025,21:19:41.28,0.49,-1023.44,-1.95,-1.07,0.40,-2.74,
05/25/2025,21:19:41.30,17.09,-1020.51,2.93,1.98,3.90,1.22,
05/25/2025,21:19:41.32,-6.35,-1022.95,2.93,3.38,0.27,-1.07,
05/25/2025,21:19:41.34,0.49,-1024.41,0.00,0.34,1.16,0.00,
05/25/2025,21:19:41.36,5.86,-1021.97,-9.28,2.26,2.29,1.92,
05/25/2025,21:19:41.38,-6.84,-1019.04,0.49,2.74,1.98,-1.31,
05/25/2025,21:19:41.40,0.98,-1029.79,-20.51,2.74,2.07,-2.16,
05/25/2025,21:19:41.42,3.91,-1019.53,-1.46,3.26,-1.10,-3.38,
05/25/2025,21:19:41.44,5.37,-1019.04,-13.18,0.49,3.57,0.67,
05/25/2025,21:19:41.46,6.35,-1017.09,-0.49,0.88,1.22,2.35,
05/25/2025,21:19:41.51,3.42,-1019.53,-3.91,-0.43,2.41,-1.77,
05/25/2025,21:19:41.53,1.46,-1009.28,-5.37,0.52,2.77,-0.79,
05/25/2025,21:19:41.55,0.98,-1015.62,-5.86,-0.70,3.48,-1.92,
05/25/2025,21:19:41.57,-0.98,-1026.37,-4.88,0.58,3.26,1.01,
05/25/2025,21:19:41.59,7.32,-1026.37,3.91,2.41,1.92,0.98,
05/25/2025,21:19:41.61,6.35,-1024.90,3.91,1.40,-0.15,3.32,
05/25/2025,21:19:41.63,5.86,-1029.79,-7.32,1.62,0.98,-0.40,
05/25/2025,21:19:41.65,5.86,-1020.51,-3.42,2.26,4.70,0.00,
05/25/2025,21:19:41.67,11.72,-1024.90,-16.11,1.65,1.74,-0.24,
05/25/2025,21:19:41.69,-0.49,-1021.00,-3.91,0.64,2.41,-1.34,
05/25/2025,21:19:41.71,0.49,-1023.44,-8.30,0.09,3.54,-1.86,
05/25/2025,21:19:41.73,-16.60,-1022.46,6.84,2.90,1.01,-1.65,
05/25/2025,21:19:41.75,3.42,-1018.07,-12.70,0.61,2.93,3.14,
05/25/2025,21:19:41.77,15.62,-1010.25,4.88,2.56,1.59,-2.62,
05/25/2025,21:19:41.79,1.46,-1029.30,-0.98,0.82,1.04,-0.30,
05/25/2025,21:19:41.81,4.39,-1026.37,-3.91,-0.06,-0.49,-1.16,
05/25/2025,21:19:41.83,-15.14,-1032.23,-1.95,0.64,0.70,-1.95,
05/25/2025,21:19:41.85,0.00,-1017.58,-10.74,1.55,0.91,1.98,
05/25/2025,21:19:41.87,-6.84,-1027.83,-7.32,2.62,2.26,-1.92,
05/25/2025,21:19:41.89,11.72,-1026.37,-6.35,2.38,1.59,-1.95,
05/25/2025,21:19:41.91,-2.44,-1023.44,-5.37,3.11,2.90,-0.79,
05/25/2025,21:19:41.93,4.88,-1023.44,-3.42,4.30,1.49,-2.35,
05/25/2025,21:19:41.95,9.77,-1036.13,-6.35,1.52,0.67,-1.19,
05/25/2025,21:19:41.97,2.93,-1017.09,0.49,2.41,-0.18,1.86,
05/25/2025,21:19:42.02,0.49,-1023.93,0.00,1.83,3.20,-1.13,
05/25/2025,21:19:42.04,-3.42,-1020.02,-5.86,0.12,2.38,-1.04,
05/25/2025,21:19:42.06,4.39,-1031.25,-11.23,0.46,0.61,-1.59,
05/25/2025,21:19:42.08,-1.46,-1012.21,-2.44,2.04,1.04,-0.88,
05/25/2025,21:19:42.10,0.00,-1028.81,-7.81,2.80,1.62,0.76,
05/25/2025,21:19:42.12,16.11,-1028.81,2.44,0.64,-1.34,-2.23,
05/25/2025,21:19:42.14,12.21,-1013.67,6.84,0.67,0.82,-3.26,
05/25/2025,21:19:42.16,3.42,-1021.97,1.95,1.01,0.98,0.64,
05/25/2025,21:19:42.18,-5.37,-1022.46,-5.37,0.03,0.85,-2.50,
05/25/2025,21:19:42.20,0.98,-1022.95,-8.79,2.84,3.05,1.34,
05/25/2025,21:19:42.22,3.91,-1011.23,-0.98,2.23,0.58,0.70,
05/25/2025,21:19:42.24,-6.35,-1030.76,-12.70,-0.43,0.21,-0.46,
05/25/2025,21:19:42.26,-0.49,-1007.32,1.95,0.73,1.92,-0.43,
05/25/2025,21:19:42.28,5.37,-1016.11,8.79,1.37,2.99,0.21,
05/25/2025,21:19:42.30,7.81,-1025.88,5.37,3.45,1.43,-1.37,
05/25/2025,21:19:42.32,-5.37,-1022.46,21.97,3.48,2.87,0.43,
05/25/2025,21:19:42.34,0.00,-1023.93,-9.77,1.80,0.61,-1.98,
05/25/2025,21:19:42.36,0.00,-1033.69,-4.88,0.79,2.13,0.06,
05/25/2025,21:19:42.38,14.65,-1022.46,-6.35,1.22,1.77,1.25,
05/25/2025,21:19:42.40,-2.93,-1014.65,-0.49,0.55,1.49,-4.05,
05/25/2025,21:19:42.42,1.95,-1020.51,-6.84,0.40,1.74,-2.07,
05/25/2025,21:19:42.44,-6.84,-1028.81,-14.16,-0.27,2.01,-0.67,
05/25/2025,21:19:42.46,1.95,-1029.30,-11.72,2.07,2.44,-2.47,
05/25/2025,21:19:42.48,1.46,-1026.86,-2.93,2.41,1.19,-0.03,
05/25/2025,21:19:42.53,-0.49,-1014.65,-1.46,1.65,0.64,-0.43,
05/25/2025,21:19:42.55,4.39,-1021.97,-3.91,1.37,2.10,2.20,
05/25/2025,21:19:42.57,7.32,-1019.04,1.46,2.04,0.46,0.12,
05/25/2025,21:19:42.59,6.84,-1022.46,-7.32,2.90,2.04,0.67,
05/25/2025,21:19:42.61,3.91,-1018.55,-6.35,2.13,0.12,-0.27,
05/25/2025,21:19:42.63,-1.46,-1017.58,-1.95,0.27,0.58,-1.89,
05/25/2025,21:19:42.65,7.32,-1025.39,-10.25,0.64,1.01,-2.10,
05/25/2025,21:19:42.67,9.77,-1019.53,0.98,0.30,1.65,-0.61,
05/25/2025,21:19:42.69,4.88,-1021.48,-9.77,1.86,1.16,-1.43,
05/25/2025,21:19:42.71,0.98,-1017.09,-10.25,1.80,2.71,3.20,
05/25/2025,21:19:42.73,-3.91,-1025.88,-1.95,0.37,0.06,-3.45,
05/25/2025,21:19:42.75,9.77,-1025.39,10.74,1.28,0.34,-1.04,
05/25/2025,21:19:42.77,6.35,-1015.14,4.88,1.95,0.58,-0.61,
05/25/2025,21:19:42.80,-0.98,-1023.44,2.93,0.30,1.98,1.07,
05/25/2025,21:19:42.82,-1.95,-1021.48,-11.23,0.82,2.87,0.52,
05/25/2025,21:19:42.84,3.91,-1015.62,3.42,1.28,2.44,-2.23,
05/25/2025,21:19:42.86,2.44,-1021.00,-7.81,0.61,3.17,-1.52,
05/25/2025,21:19:42.88,1.46,-1021.00,-5.86,0.85,2.23,-2.04,
05/25/2025,21:19:42.90,1.95,-1025.88,-2.93,1.92,1.40,-1.86,
05/25/2025,21:19:42.92,-1.46,-1011.23,4.39,1.13,0.21,-0.95,
05/25/2025,21:19:42.94,-1.95,-1011.72,-6.35,0.15,2.23,-0.91,
05/25/2025,21:19:42.96,0.00,-1030.27,3.42,-0.67,1.80,-2.26,
05/25/2025,21:19:42.98,2.93,-1017.58,-6.84,1.07,2.38,0.98,
05/25/2025,21:19:43.00,11.23,-1026.37,-4.39,2.20,1.86,-0.98,
05/25/2025,21:19:43.05,15.14,-1020.51,2.44,-0.12,-0.03,-0.12,
05/25/2025,21:19:43.07,-1.95,-1025.88,4.88,-0.03,1.65,0.30,
05/25/2025,21:19:43.09,2.44,-1017.09,2.93,1.77,1.83,-1.22,
05/25/2025,21:19:43.11,-1.46,-1009.28,0.00,3.99,1.80,2.13,
05/25/2025,21:19:43.13,-7.32,-1027.83,-2.93,1.10,2.47,-0.49,
05/25/2025,21:19:43.15,1.46,-1009.77,8.30,1.28,3.48,-0.15,
05/25/2025,21:19:43.17,3.91,-1012.21,-2.93,-0.30,-0.67,-0.73,
05/25/2025,21:19:43.19,11.72,-1010.74,-16.11,-0.27,2.35,-1.49,
05/25/2025,21:19:43.21,4.88,-1017.09,6.84,2.16,2.29,-0.40,
05/25/2025,21:19:43.23,3.42,-1022.95,-15.62,1.31,0.58,-1.22,
05/25/2025,21:19:43.25,-0.49,-1021.97,2.44,2.80,1.62,1.19,
05/25/2025,21:19:43.27,1.46,-1014.65,0.00,1.01,0.40,-2.20,
05/25/2025,21:19:43.29,9.28,-1029.30,-6.84,1.13,0.98,2.41,
05/25/2025,21:19:43.31,-8.30,-1032.71,6.35,1.49,2.23,0.09,
05/25/2025,21:19:43.33,0.00,-1026.37,-8.30,1.86,1.22,1.04,
05/25/2025,21:19:43.35,0.98,-1025.88,-4.39,0.67,1.77,-0.24,
05/25/2025,21:19:43.37,-3.42,-1024.41,-5.37,2.59,2.04,-2.07,
05/25/2025,21:19:43.39,12.70,-1027.34,-1.46,1.22,1.37,0.49,
05/25/2025,21:19:43.41,0.49,-1020.51,-7.81,0.61,0.70,-0.09,
05/25/2025,21:19:43.43,3.42,-1017.09,6.35,-1.10,1.77,1.95,
05/25/2025,21:19:43.45,5.86,-1023.93,1.46,0.49,-0.24,1.16,
05/25/2025,21:19:43.47,12.70,-1021.97,-2.93,1.52,2.50,-0.70,
05/25/2025,21:19:43.49,11.23,-1012.21,-4.39,3.14,3.81,-1.07,
05/25/2025,21:19:43.51,5.86,-1022.46,0.98,0.55,1.62,-0.30,
05/25/2025,21:19:43.56,18.07,-1013.18,-3.42,0.95,1.83,1.10,
05/25/2025,21:19:43.58,3.42,-1016.11,0.98,3.26,3.11,2.65,
05/25/2025,21:19:43.60,4.39,-1021.97,7.81,1.43,2.77,2.53,
05/25/2025,21:19:43.62,-5.86,-1011.72,14.65,1.07,2.93,-0.55,
05/25/2025,21:19:43.64,1.95,-1022.46,-5.37,1.13,0.88,1.19,
05/25/2025,21:19:43.66,1.46,-1037.60,0.00,1.92,1.80,-2.53,
05/25/2025,21:19:43.68,-4.88,-1013.67,-4.39,2.90,1.19,-2.07,
05/25/2025,21:19:43.70,3.42,-1022.46,-10.74,3.20,2.80,0.43,
05/25/2025,21:19:43.72,6.35,-1025.88,-6.84,1.89,1.22,0.52,
05/25/2025,21:19:43.74,8.30,-1027.34,-9.28,1.31,-0.12,-1.40,
05/25/2025,21:19:43.76,2.44,-1021.00,0.49,1.65,0.95,-0.06,
05/25/2025,21:19:43.78,-0.49,-1021.97,-2.93,0.43,3.93,0.46,
05/25/2025,21:19:43.80,9.77,-1029.79,-15.62,0.52,2.99,0.00,
05/25/2025,21:19:43.82,8.30,-1023.44,-7.81,0.85,1.07,-0.40,
05/25/2025,21:19:43.84,-1.95,-1011.23,-12.70,3.87,2.26,-2.35,
05/25/2025,21:19:43.86,9.28,-1023.93,-2.93,1.46,1.19,0.00,
05/25/2025,21:19:43.88,-5.86,-1022.95,0.49,1.77,3.75,0.15,
05/25/2025,21:19:43.90,5.86,-1019.53,-5.37,1.52,0.30,0.21,
05/25/2025,21:19:43.92,3.42,-1006.35,0.49,0.73,2.96,-1.59,
05/25/2025,21:19:43.94,-7.32,-1033.69,-0.98,2.84,-1.01,-0.98,
05/25/2025,21:19:43.96,4.39,-1029.30,-9.77,3.35,1.98,-1.07,
05/25/2025,21:19:43.98,8.79,-1028.32,-8.79,0.49,0.34,-0.79,
05/25/2025,21:19:44.00,4.88,-1019.53,-13.67,0.00,2.90,0.58,
05/25/2025,21:19:44.02,11.23,-1042.48,-6.35,2.74,1.65,1.62,
05/25/2025,21:19:44.07,1.95,-1025.88,-1.46,0.49,0.34,-2.10,
05/25/2025,21:19:44.09,9.28,-1030.76,-3.91,3.26,1.80,-0.76,
05/25/2025,21:19:44.11,-5.37,-1019.04,-2.44,0.76,2.53,-0.85,
05/25/2025,21:19:44.13,17.09,-1019.53,-1.46,-0.21,3.02,-4.91,
05/25/2025,21:19:44.15,9.28,-1017.09,-6.35,3.32,-0.34,-0.98,
05/25/2025,21:19:44.17,4.39,-1023.44,-2.93,1.77,2.01,-3.05,
05/25/2025,21:19:44.19,5.37,-1024.41,-1.95,1.37,1.83,-1.22,
05/25/2025,21:19:44.21,-2.44,-1017.09,0.49,0.85,1.16,0.55,
05/25/2025,21:19:44.23,-11.72,-1023.93,-8.30,1.89,1.22,-0.67,
05/25/2025,21:19:44.25,9.77,-1019.04,10.74,2.04,3.54,0.24,
05/25/2025,21:19:44.27,0.49,-1024.41,-0.49,4.36,1.10,0.82,
05/25/2025,21:19:44.29,4.88,-1014.65,-0.49,0.06,2.13,-2.80,
05/25/2025,21:19:44.31,-7.32,-1023.93,1.95,1.19,2.59,-1.10,
05/25/2025,21:19:44.33,6.84,-1028.81,0.98,1.98,1.52,0.91,
05/25/2025,21:19:44.35,0.98,-1040.04,-9.28,0.52,2.10,1.22,
05/25/2025,21:19:44.37,1.46,-1028.32,-2.44,1.59,-1.28,-0.73,
05/25/2025,21:19:44.39,2.44,-1033.69,-2.93,2.20,2.23,0.27,
05/25/2025,21:19:44.41,0.98,-1032.71,-4.39,1.92,-0.21,-0.37,
05/25/2025,21:19:44.43,-6.84,-1030.76,2.93,1.40,0.88,1.25,
05/25/2025,21:19:44.45,3.91,-1026.86,1.95,-0.34,1.65,2.56,
05/25/2025,21:19:44.47,-1.46,-1030.27,-8.30,0.98,0.88,-2.99,
05/25/2025,21:19:44.49,3.91,-1014.65,-2.93,1.16,2.35,-2.07,
05/25/2025,21:19:44.51,17.58,-1021.00,-0.49,1.25,0.15,-1.10,
05/25/2025,21:19:44.53,7.81,-1021.00,-8.79,2.20,0.58,-0.76,
05/25/2025,21:19:44.59,-5.86,-1021.00,-0.98,0.67,0.58,0.03,
05/25/2025,21:19:44.61,2.44,-1014.16,-8.79,1.95,2.26,-2.59,
05/25/2025,21:19:44.63,2.44,-1021.48,11.23,2.16,1.52,-1.55,
05/25/2025,21:19:44.65,-11.72,-1024.90,-8.30,1.52,-0.85,0.27,
05/25/2025,21:19:44.67,11.72,-1025.88,2.93,1.25,-0.34,-3.08,
05/25/2025,21:19:44.69,6.35,-1018.55,-1.46,-0.06,3.23,0.58,
05/25/2025,21:19:44.71,17.09,-1027.34,-1.46,1.37,1.62,-2.29,
05/25/2025,21:19:44.73,8.30,-1017.58,-5.86,1.25,2.38,-0.49,
05/25/2025,21:19:44.75,18.55,-1027.34,-4.88,2.26,-1.25,-1.74,
05/25/2025,21:19:44.77,-1.95,-1021.00,-14.65,0.85,3.75,-4.12,
05/25/2025,21:19:44.79,15.14,-1023.93,-3.42,0.73,2.04,0.12,
05/25/2025,21:19:44.81,5.37,-1018.55,-2.93,0.09,1.01,5.06,
05/25/2025,21:19:44.83,-15.14,-1027.34,-4.39,0.55,2.20,1.07,
05/25/2025,21:19:44.85,1.46,-1025.88,-3.91,1.34,2.62,-1.04,
05/25/2025,21:19:44.87,2.44,-1016.60,6.35,-0.85,1.31,0.30,
05/25/2025,21:19:44.89,5.37,-1019.04,-7.32,4.15,2.13,-1.25,
05/25/2025,21:19:44.91,10.25,-1023.44,-0.98,1.31,-0.15,-1.28,
05/25/2025,21:19:44.93,-2.44,-1032.23,0.49,0.82,-1.07,-0.40,
05/25/2025,21:19:44.95,3.91,-1030.27,-5.86,3.75,-0.24,0.15,
05/25/2025,21:19:44.97,2.93,-1018.07,-2.93,1.46,1.13,-3.45,
05/25/2025,21:19:44.99,9.77,-1013.67,-10.74,2.38,0.73,-1.98,
05/25/2025,21:19:45.01,-0.49,-1024.90,-10.74,1.92,1.40,0.09,
05/25/2025,21:19:45.03,5.37,-1026.86,-6.84,0.15,1.98,-2.96,
05/25/2025,21:19:45.05,0.98,-1013.67,1.95,2.32,0.79,-1.19,
05/25/2025,21:19:45.10,0.49,-1009.28,-0.98,-0.18,1.62,-2.10,
05/25/2025,21:19:45.12,1.46,-1020.02,0.49,2.38,1.40,2.13,
05/25/2025,21:19:45.15,0.98,-1019.04,6.35,0.37,1.37,-1.49,
05/25/2025,21:19:45.17,16.11,-1026.86,-3.42,1.52,0.30,-2.04,
05/25/2025,21:19:45.19,0.49,-1016.60,-12.70,0.88,1.80,-1.13,
05/25/2025,21:19:45.21,-6.35,-1015.14,-2.93,1.22,0.73,0.30,
05/25/2025,21:19:45.23,6.84,-1028.32,-5.37,1.74,0.91,-1.31,
05/25/2025,21:19:45.25,-2.93,-1013.18,-0.49,1.04,0.27,-1.16,
05/25/2025,21:19:45.27,9.28,-1015.14,-5.86,0.40,2.13,0.12,
05/25/2025,21:19:45.29,5.37,-1025.39,-8.30,1.19,3.14,-1.86,
05/25/2025,21:19:45.31,11.23,-1019.04,5.86,0.70,1.01,1.86,
05/25/2025,21:19:45.33,5.37,-1013.67,-0.98,0.03,1.83,1.86,
05/25/2025,21:19:45.35,5.37,-1030.27,-2.93,0.91,4.82,1.07,
05/25/2025,21:19:45.37,0.49,-1041.02,8.79,2.16,7.77,-0.15,
05/25/2025,21:19:45.39,6.35,-1027.34,11.23,0.12,1.52,0.82,
05/25/2025,21:19:45.41,2.44,-1026.37,-6.84,0.79,1.07,-0.73,
05/25/2025,21:19:45.43,1.46,-1020.02,1.46,1.49,2.10,-0.88,
05/25/2025,21:19:45.45,-3.91,-1022.46,-12.21,3.05,5.18,-1.74,
05/25/2025,21:19:45.47,-4.88,-1015.62,10.25,2.99,4.76,0.55,
05/25/2025,21:19:45.49,9.28,-1036.13,-4.39,1.31,-1.22,-1.77,
05/25/2025,21:19:45.51,0.49,-1023.93,-10.25,2.29,-0.15,0.88,
05/25/2025,21:19:45.53,4.39,-1030.27,-5.86,1.89,1.49,-0.21,
05/25/2025,21:19:45.55,-0.49,-1031.25,-0.98,1.10,4.42,-0.64,
05/25/2025,21:19:45.57,-1.95,-1020.02,-8.30,1.37,3.78,2.84,
05/25/2025,21:19:45.62,0.00,-1016.11,-0.98,0.34,4.05,-0.67,
05/25/2025,21:19:45.64,0.49,-1018.07,-2.93,1.28,4.12,0.88,
05/25/2025,21:19:45.66,-3.91,-1009.28,-6.35,0.76,0.12,-0.46,
05/25/2025,21:19:45.68,-4.88,-1020.02,-7.81,3.48,2.07,-2.44,
05/25/2025,21:19:45.70,-6.35,-1027.34,0.49,3.81,1.83,-2.35,
05/25/2025,21:19:45.72,9.77,-1023.44,-2.93,1.01,1.25,0.98,
05/25/2025,21:19:45.74,1.95,-1013.67,3.91,-0.03,2.01,-0.98,
05/25/2025,21:19:45.76,2.44,-1021.97,-3.91,0.98,1.62,0.49,
05/25/2025,21:19:45.78,5.86,-1024.90,-9.28,2.38,4.76,-0.27,
05/25/2025,21:19:45.80,10.74,-1015.62,-9.28,1.07,1.28,-0.34,
05/25/2025,21:19:45.82,-3.42,-1023.44,-12.70,0.58,0.37,-1.52,
05/25/2025,21:19:45.84,2.93,-1020.51,-8.79,2.53,0.27,0.76,
05/25/2025,21:19:45.86,4.39,-1012.21,-4.88,0.37,1.89,-1.28,
05/25/2025,21:19:45.88,1.95,-1028.32,-1.46,1.22,1.95,-0.34,
05/25/2025,21:19:45.90,-5.86,-1020.02,-1.95,0.55,2.71,-2.32,
05/25/2025,21:19:45.92,5.37,-1024.41,-2.44,1.74,0.43,-1.83,
05/25/2025,21:19:45.94,14.65,-1024.90,-11.23,2.50,4.05,1.01,
05/25/2025,21:19:45.96,-1.95,-1012.21,2.44,2.04,2.41,-1.40,
05/25/2025,21:19:45.98,-0.49,-1027.83,-5.86,-0.06,4.42,-0.55,
05/25/2025,21:19:46.00,5.37,-1034.18,4.39,0.03,3.41,-2.53,
05/25/2025,21:19:46.02,0.00,-1031.74,0.49,-1.55,2.84,-3.20,
05/25/2025,21:19:46.04,-1.46,-1016.60,-11.72,0.73,0.34,-2.47,
05/25/2025,21:19:46.06,0.49,-1013.67,-8.30,1.71,2.96,-1.10,
05/25/2025,21:19:46.08,-1.95,-1020.51,1.46,2.26,2.04,0.82,
05/25/2025,21:19:46.13,7.32,-1021.48,1.95,-1.10,0.37,-1.13,
05/25/2025,21:19:46.15,-10.25,-1025.88,7.81,1.07,-0.03,-0.88,
05/25/2025,21:19:46.17,7.32,-1023.93,-3.42,3.60,0.21,1.01,
05/25/2025,21:19:46.19,12.21,-1017.58,0.00,2.41,2.23,1.52,
05/25/2025,21:19:46.21,7.81,-1016.11,-2.44,2.65,0.98,-0.58,
05/25/2025,21:19:46.23,8.79,-1014.65,-0.98,3.20,2.77,2.47,
05/25/2025,21:19:46.25,7.32,-1029.79,-5.37,2.16,1.37,-3.14,
05/25/2025,21:19:46.27,13.18,-1023.44,-3.42,1.25,-1.13,-2.68,
05/25/2025,21:19:46.29,10.25,-1018.55,-10.74,1.62,-0.64,-1.43,
05/25/2025,21:19:46.31,1.46,-1018.07,-5.86,2.16,1.86,2.13,
05/25/2025,21:19:46.33,0.98,-1014.65,-7.81,0.40,1.71,-0.27,
05/25/2025,21:19:46.35,5.37,-1013.67,-0.49,0.27,0.27,-0.43,
05/25/2025,21:19:46.37,3.91,-1021.48,-8.30,0.49,1.74,0.37,
05/25/2025,21:19:46.39,-4.88,-1022.46,2.44,0.73,-0.34,0.00,
05/25/2025,21:19:46.41,0.00,-1030.27,5.37,1.77,1.43,0.61,
05/25/2025,21:19:46.43,-9.77,-1021.97,1.95,2.99,-0.27,1.13,
05/25/2025,21:19:46.45,12.21,-1028.81,0.00,1.95,0.88,-3.17,
05/25/2025,21:19:46.47,5.86,-1019.04,-5.37,-0.27,-0.18,0.27,
05/25/2025,21:19:46.49,2.44,-1023.93,0.00,0.67,1.25,-1.25,
05/25/2025,21:19:46.51,-4.88,-1025.39,-18.07,1.65,3.96,-0.73,
05/25/2025,21:19:46.53,-6.84,-1022.95,-4.39,-0.55,1.19,-1.04,
05/25/2025,21:19:46.55,3.91,-1026.86,-11.23,3.11,2.65,-0.15,
05/25/2025,21:19:46.57,3.42,-1027.83,-4.88,1.83,1.86,0.34,
05/25/2025,21:19:46.59,1.46,-1010.25,-5.37,2.29,1.16,-2.93,
05/25/2025,21:19:46.64,-6.35,-1026.86,-8.30,1.55,2.74,-1.07,
05/25/2025,21:19:46.66,20.51,-1023.44,-5.86,1.80,2.10,-2.23,
05/25/2025,21:19:46.68,2.93,-1026.37,1.46,0.91,-0.15,-1.34,
05/25/2025,21:19:46.70,5.86,-1030.27,0.49,1.34,3.14,-3.08,
05/25/2025,21:19:46.72,0.98,-1022.95,3.42,2.50,0.85,0.52,
05/25/2025,21:19:46.74,-15.62,-1017.09,1.46,1.77,1.01,1.01,
05/25/2025,21:19:46.76,1.95,-1013.67,-7.32,0.00,2.80,-2.65,
05/25/2025,21:19:46.78,1.95,-1022.46,-6.35,2.65,1.83,2.04,
05/25/2025,21:19:46.80,-1.95,-1020.02,-3.42,1.59,1.37,1.01,
05/25/2025,21:19:46.82,4.39,-1019.04,-3.42,2.93,1.25,0.49,
05/25/2025,21:19:46.84,9.77,-1019.04,1.46,1.04,2.44,-0.27,
05/25/2025,21:19:46.86,2.44,-1021.97,-2.93,-0.85,0.70,-2.71,
05/25/2025,21:19:46.88,3.91,-1028.32,-15.14,0.76,1.43,-1.71,
05/25/2025,21:19:46.90,6.35,-1025.88,-5.86,0.12,0.70,-0.12,
05/25/2025,21:19:46.92,-0.98,-1023.93,8.79,2.93,2.29,0.30,
05/25/2025,21:19:46.94,-1.95,-1024.41,4.88,0.91,-0.06,0.37,
05/25/2025,21:19:46.96,6.84,-1017.58,3.42,2.29,1.74,-2.16,
05/25/2025,21:19:46.98,0.98,-1023.93,-11.72,3.51,1.65,-2.20,
05/25/2025,21:19:47.00,8.79,-1015.14,0.49,0.73,2.10,-0.55,
05/25/2025,21:19:47.02,3.91,-1025.88,-6.35,0.76,1.01,-1.19,
05/25/2025,21:19:47.04,2.44,-1018.07,1.46,0.49,1.52,-1.40,
05/25/2025,21:19:47.06,-9.77,-1018.07,-8.30,3.90,0.98,0.95,
05/25/2025,21:19:47.08,-5.37,-1008.30,-5.86,2.44,1.46,-2.90,
05/25/2025,21:19:47.10,0.00,-1018.55,-1.95,1.52,2.68,1.01,
05/25/2025,21:19:47.15,5.86,-1000.98,-14.16,-0.58,-0.06,-2.90,
05/25/2025,21:19:47.17,2.44,-1017.58,-3.91,2.10,2.29,-1.16,
05/25/2025,21:19:47.19,2.93,-1024.90,-4.39,1.83,2.04,1.28,
05/25/2025,21:19:47.21,2.93,-1027.34,-5.37,2.68,-0.15,0.40,
05/25/2025,21:19:47.23,1.95,-1022.46,2.44,1.10,3.23,-2.07,
05/25/2025,21:19:47.25,-5.37,-1018.07,-5.37,1.92,2.68,0.03,
05/25/2025,21:19:47.27,-1.95,-1026.37,2.93,0.18,1.62,-2.80,
05/25/2025,21:19:47.29,2.93,-1023.93,-1.95,3.08,1.98,3.51,
05/25/2025,21:19:47.31,-9.77,-1011.23,7.81,2.29,-0.30,0.70,
05/25/2025,21:19:47.33,-12.70,-1013.18,-2.93,1.83,-0.55,0.91,
05/25/2025,21:19:47.35,4.88,-1016.11,-14.16,0.55,-0.76,-2.93,
05/25/2025,21:19:47.37,9.28,-1021.00,-16.11,-1.52,-1.28,2.65,
05/25/2025,21:19:47.39,-7.81,-1021.97,-1.95,-0.12,4.12,3.54,
05/25/2025,21:19:47.41,0.49,-1024.41,-11.23,1.49,-0.03,-2.20,
05/25/2025,21:19:47.43,8.79,-1024.90,-0.49,1.95,0.03,-0.82,
05/25/2025,21:19:47.45,-4.88,-1022.95,-2.44,2.84,1.19,1.49,
05/25/2025,21:19:47.47,2.44,-1032.71,6.35,0.73,2.80,-0.79,
05/25/2025,21:19:47.49,12.70,-1023.44,-1.95,0.21,2.20,-4.48,
05/25/2025,21:19:47.51,1.46,-1019.53,-8.30,0.70,2.01,-3.08,
05/25/2025,21:19:47.53,-4.39,-1025.39,-4.39,0.58,0.49,-2.13,
05/25/2025,21:19:47.55,-5.37,-1027.34,0.49,1.59,0.73,-1.28,
05/25/2025,21:19:47.57,10.74,-1011.72,0.98,0.49,1.77,-1.86,
05/25/2025,21:19:47.59,-1.46,-1021.97,-3.91,2.23,3.05,0.55,
05/25/2025,21:19:47.61,0.49,-1014.16,-7.81,0.34,1.62,-2.32,
05/25/2025,21:19:47.66,7.81,-1025.39,-5.37,1.89,1.46,-2.04,
05/25/2025,21:19:47.68,10.25,-1016.60,0.00,0.40,3.66,0.43,
05/25/2025,21:19:47.70,1.95,-1027.34,-4.39,0.73,1.37,-0.06,
05/25/2025,21:19:47.72,2.44,-1022.46,-1.46,2.80,3.93,-1.95,
05/25/2025,21:19:47.74,1.46,-1006.35,-10.74,2.62,1.04,-1.92,
05/25/2025,21:19:47.76,-0.98,-1021.97,-5.37,2.16,3.14,-0.43,
05/25/2025,21:19:47.78,16.11,-1019.04,7.32,-0.37,2.38,2.16,
05/25/2025,21:19:47.80,10.25,-1027.83,-2.44,2.35,-0.24,0.98,
05/25/2025,21:19:47.82,0.98,-1017.09,-8.79,1.31,0.98,-2.32,
05/25/2025,21:19:47.84,-0.49,-1017.09,6.35,1.74,1.89,-0.21,
05/25/2025,21:19:47.86,1.95,-1027.83,10.74,1.25,1.55,-2.44,
05/25/2025,21:19:47.88,6.35,-1016.11,-7.81,-1.07,2.04,2.20,
05/25/2025,21:19:47.91,-10.74,-1023.44,3.42,2.71,0.70,-1.28,
05/25/2025,21:19:47.93,10.74,-1023.44,-1.95,1.74,2.50,-0.82,
05/25/2025,21:19:47.95,4.39,-1024.90,-10.74,1.65,1.59,-0.18,
05/25/2025,21:19:47.97,11.72,-1012.70,-10.74,3.54,1.80,1.22,
05/25/2025,21:19:47.99,5.37,-1019.04,-7.81,1.43,3.26,-1.31,
05/25/2025,21:19:48.01,5.86,-1033.20,-11.72,1.59,4.33,-1.07,
05/25/2025,21:19:48.03,2.44,-1032.23,-3.91,0.73,5.24,-0.03,
05/25/2025,21:19:48.05,2.93,-1028.32,1.95,1.04,2.62,0.37,
05/25/2025,21:19:48.07,-5.37,-1025.39,1.95,0.67,0.03,-2.26,
05/25/2025,21:19:48.09,2.44,-1022.46,-5.37,0.98,3.48,-0.58,
05/25/2025,21:19:48.11,7.32,-1025.88,-0.98,0.58,1.07,-4.24,
05/25/2025,21:19:48.13,-0.98,-1024.41,-3.42,2.50,2.65,-0.12,
05/25/2025,21:19:48.18,-6.35,-1020.51,2.44,0.27,0.37,-1.34,
05/25/2025,21:19:48.20,1.95,-1021.48,-9.77,2.04,1.59,-3.20,
05/25/2025,21:19:48.22,11.72,-1020.51,0.98,1.10,2.13,1.80,
05/25/2025,21:19:48.24,2.44,-1027.34,13.67,0.21,1.86,-1.65,
05/25/2025,21:19:48.26,7.81,-1029.79,-5.86,1.98,-0.85,-1.74,
05/25/2025,21:19:48.28,13.18,-1021.97,-0.98,0.91,-0.98,-1.16,
05/25/2025,21:19:48.30,3.42,-1012.70,-8.30,1.55,-1.62,1.22,
05/25/2025,21:19:48.32,1.95,-1027.34,0.49,0.00,2.93,0.91,
05/25/2025,21:19:48.34,-2.44,-1018.55,-3.91,1.68,-0.27,-3.78,
05/25/2025,21:19:48.36,8.79,-1031.25,0.00,1.40,-0.64,0.03,
05/25/2025,21:19:48.38,19.53,-1026.86,0.49,0.98,3.29,-0.64,
05/25/2025,21:19:48.40,-5.37,-1030.76,6.35,3.41,0.12,1.25,
05/25/2025,21:19:48.42,-3.91,-1021.97,20.02,2.71,-6.86,-0.24,
05/25/2025,21:19:48.44,-2.93,-1012.21,-1.95,2.65,-4.88,1.25,
05/25/2025,21:19:48.46,5.37,-1019.04,-3.91,3.54,-1.62,0.24,
05/25/2025,21:19:48.48,2.44,-1016.60,6.84,4.91,-5.95,-0.88,
05/25/2025,21:19:48.50,12.70,-1004.88,-25.88,6.43,1.68,4.27,
05/25/2025,21:19:48.52,-0.98,-1025.88,1.95,5.43,2.32,-0.82,
05/25/2025,21:19:48.54,5.86,-1033.69,12.21,3.41,-3.66,0.49,
05/25/2025,21:19:48.56,4.39,-1025.88,-21.97,3.84,-2.35,1.04,
05/25/2025,21:19:48.58,10.74,-1026.37,-0.98,1.95,2.01,0.34,
05/25/2025,21:19:48.60,0.49,-1020.02,7.81,1.80,3.51,-0.03,
05/25/2025,21:19:48.62,-2.93,-1016.11,-5.37,-1.07,-2.71,0.58,
05/25/2025,21:19:48.64,-10.74,-1028.81,14.65,2.53,-4.48,2.13,
05/25/2025,21:19:48.70,14.65,-1024.90,-2.93,1.62,2.13,0.27,
05/25/2025,21:19:48.72,8.30,-1011.23,0.98,-2.47,-0.09,-1.59,
05/25/2025,21:19:48.74,13.67,-1023.44,10.25,3.51,0.03,-0.67,
05/25/2025,21:19:48.76,5.86,-1013.18,14.16,0.95,1.13,-0.64,
05/25/2025,21:19:48.78,9.28,-1016.11,-1.46,2.13,1.46,-0.64,
05/25/2025,21:19:48.80,0.00,-1018.55,4.88,2.20,2.35,-0.37,
05/25/2025,21:19:48.82,-4.88,-1022.46,17.58,1.16,1.01,-0.76,
05/25/2025,21:19:48.84,2.93,-1035.16,4.39,1.77,2.10,0.52,
05/25/2025,21:19:48.86,7.81,-1026.86,10.25,0.88,2.07,0.18,
05/25/2025,21:19:48.88,-4.88,-1036.13,-2.44,0.03,3.32,-0.76,
05/25/2025,21:19:48.90,-10.74,-1019.53,-0.49,1.46,0.34,-1.19,
05/25/2025,21:19:48.92,1.46,-1016.11,3.91,2.04,0.73,0.70,
05/25/2025,21:19:48.94,-7.32,-1017.58,2.93,0.76,2.87,2.29,
05/25/2025,21:19:48.96,-4.39,-1031.74,9.28,1.28,1.92,-2.10,
05/25/2025,21:19:48.98,0.49,-1025.39,6.35,1.83,2.56,-2.93,
05/25/2025,21:19:49.00,5.86,-1017.58,7.81,1.89,0.58,-0.61,
05/25/2025,21:19:49.02,-7.81,-1022.46,10.74,0.88,2.07,-3.32,
05/25/2025,21:19:49.04,1.95,-1018.55,-1.46,1.86,3.41,-1.62,
05/25/2025,21:19:49.06,-1.46,-1011.23,11.23,2.62,0.03,-1.65,
05/25/2025,21:19:49.08,-1.95,-1016.60,10.25,1.55,1.59,1.37,
05/25/2025,21:19:49.10,7.32,-1019.04,10.25,1.46,2.29,2.53,
05/25/2025,21:19:49.12,9.77,-1020.51,3.91,1.59,0.40,-1.07,
05/25/2025,21:19:49.14,0.00,-1021.00,0.00,1.28,2.26,0.00,
05/25/2025,21:19:49.16,4.39,-1023.44,7.81,-0.03,-0.58,-0.64,
05/25/2025,21:19:49.21,-4.88,-1016.60,2.93,0.76,2.44,-1.46,
05/25/2025,21:19:49.23,16.11,-1019.53,11.23,-0.12,1.34,0.55,
05/25/2025,21:19:49.25,4.39,-1023.44,1.46,1.68,0.88,-2.93,
05/25/2025,21:19:49.27,1.46,-1021.48,15.62,0.52,0.88,3.78,
05/25/2025,21:19:49.29,8.30,-1017.09,19.04,2.01,3.60,1.55,
05/25/2025,21:19:49.31,9.77,-1021.48,-1.46,0.52,0.79,0.91,
05/25/2025,21:19:49.33,-11.23,-1030.76,33.69,2.50,-7.74,0.43,
05/25/2025,21:19:49.35,-3.91,-1013.67,-14.16,2.90,-0.34,-1.89,
05/25/2025,21:19:49.37,11.72,-1021.48,7.81,2.16,0.61,0.18,
05/25/2025,21:19:49.39,5.37,-1020.02,-2.93,2.56,2.74,0.30,
05/25/2025,21:19:49.41,9.77,-1015.14,13.67,0.79,1.62,0.34,
05/25/2025,21:19:49.43,-1.95,-1023.44,-4.39,0.64,0.24,-1.34,
05/25/2025,21:19:49.45,11.72,-1023.44,20.02,0.40,-0.49,-2.68,
05/25/2025,21:19:49.47,4.39,-1015.62,2.44,4.45,0.37,-2.23,
05/25/2025,21:19:49.49,8.30,-1027.34,12.21,1.04,3.48,0.70,
05/25/2025,21:19:49.51,3.42,-1029.30,6.84,2.35,2.71,2.93,
05/25/2025,21:19:49.53,-1.95,-1017.58,1.95,2.29,0.49,2.99,
05/25/2025,21:19:49.55,3.91,-1022.46,17.58,1.77,3.60,-0.40,
05/25/2025,21:19:49.57,5.37,-1024.41,3.91,2.59,1.28,-1.59,
05/25/2025,21:19:49.59,3.91,-1023.93,5.86,3.08,1.43,-5.64,
05/25/2025,21:19:49.61,-7.81,-1026.37,7.32,0.52,0.15,-4.39,
05/25/2025,21:19:49.63,2.93,-1016.11,-13.18,1.77,-12.29,-1.31,
05/25/2025,21:19:49.65,5.86,-1013.67,-3.91,0.03,0.34,-3.05,
05/25/2025,21:19:49.67,2.44,-1023.44,6.35,2.35,3.75,-0.52,
05/25/2025,21:19:49.72,-1.46,-1020.51,-2.93,2.68,0.30,1.86,
05/25/2025,21:19:49.74,-2.93,-1022.46,7.32,0.27,2.01,0.85,
05/25/2025,21:19:49.76,14.65,-1013.67,1.95,2.44,2.62,-1.74,
05/25/2025,21:19:49.78,10.25,-1019.04,2.93,2.26,3.29,0.88,
05/25/2025,21:19:49.80,-8.79,-1027.83,9.77,2.90,3.41,0.82,
05/25/2025,21:19:49.82,17.58,-1034.18,0.49,0.98,4.27,-2.35,
05/25/2025,21:19:49.84,6.84,-1012.21,0.49,1.62,1.46,0.70,
05/25/2025,21:19:49.86,2.93,-1022.95,1.95,1.01,5.46,-0.95,
05/25/2025,21:19:49.88,3.42,-1026.37,4.88,2.99,2.20,-1.49,
05/25/2025,21:19:49.90,8.79,-1016.60,-8.79,2.53,4.02,2.13,
05/25/2025,21:19:49.92,-8.79,-1038.09,-3.42,1.80,15.15,-3.05,
05/25/2025,21:19:49.94,5.37,-1016.11,4.39,1.31,6.22,-1.52,
05/25/2025,21:19:49.96,1.95,-1011.23,13.18,0.40,5.70,0.61,
05/25/2025,21:19:49.98,9.77,-1019.04,-13.18,1.22,10.24,1.10,
05/25/2025,21:19:50.00,4.88,-1029.30,20.51,3.99,8.14,1.65,
05/25/2025,21:19:50.02,-6.84,-1019.04,10.25,1.83,-0.91,1.62,
05/25/2025,21:19:50.04,12.21,-1024.41,4.88,1.10,2.84,-2.10,
05/25/2025,21:19:50.06,5.37,-1030.76,7.32,1.19,3.23,-2.47,
05/25/2025,21:19:50.08,-0.98,-1022.95,-1.46,2.84,2.59,0.43,
05/25/2025,21:19:50.10,0.00,-1018.55,13.67,1.31,0.24,1.55,
05/25/2025,21:19:50.12,4.39,-1022.46,0.98,3.54,0.03,-2.35,
05/25/2025,21:19:50.14,6.35,-1019.04,16.60,1.49,0.24,1.13,
05/25/2025,21:19:50.16,4.88,-1021.00,-5.37,0.98,0.55,0.55,
05/25/2025,21:19:50.18,7.32,-1017.09,13.18,1.31,1.31,-1.95,
05/25/2025,21:19:50.23,0.49,-1028.32,7.81,1.95,0.98,0.67,
05/25/2025,21:19:50.25,5.37,-1027.83,14.16,1.62,1.04,2.01,
05/25/2025,21:19:50.27,7.32,-1030.76,15.14,0.21,1.62,1.01,
05/25/2025,21:19:50.29,0.98,-1014.65,-0.49,0.52,2.65,2.53,
05/25/2025,21:19:50.31,4.88,-1031.25,14.16,1.55,2.32,-1.01,
05/25/2025,21:19:50.33,4.39,-1008.30,10.25,0.82,0.85,0.58,
05/25/2025,21:19:50.35,0.98,-1026.37,14.65,2.01,1.28,0.98,
05/25/2025,21:19:50.37,3.42,-1019.53,6.84,1.25,2.47,-0.98,
05/25/2025,21:19:50.39,-1.46,-1029.30,9.77,0.85,2.62,-1.65,
05/25/2025,21:19:50.41,-1.46,-1026.37,9.77,1.59,2.44,-1.31,
05/25/2025,21:19:50.43,14.16,-1021.00,4.88,0.24,-0.27,-1.37,
05/25/2025,21:19:50.45,-1.95,-1016.60,-0.98,2.29,1.43,-0.49,
05/25/2025,21:19:50.47,2.44,-1018.07,14.16,3.17,0.34,-1.16,
05/25/2025,21:19:50.49,4.39,-1034.18,-2.93,-0.30,-0.30,-1.95,
05/25/2025,21:19:50.51,-0.98,-1025.39,3.91,1.86,1.01,-0.85,
05/25/2025,21:19:50.53,-0.49,-1022.46,-1.95,0.64,1.80,0.70,
05/25/2025,21:19:50.55,4.88,-1023.93,3.91,1.95,0.27,-0.34,
05/25/2025,21:19:50.57,9.28,-1029.30,3.91,1.25,1.86,-2.29,
05/25/2025,21:19:50.59,2.93,-1026.37,4.39,1.28,2.93,-1.16,
05/25/2025,21:19:50.61,14.16,-1031.74,3.42,2.04,2.56,-0.46,
05/25/2025,21:19:50.63,9.28,-1029.79,5.86,1.92,3.29,0.37,
05/25/2025,21:19:50.65,-3.91,-1016.11,7.32,1.59,2.20,-0.85,
05/25/2025,21:19:50.68,5.37,-1018.55,8.30,1.65,2.04,0.43,
05/25/2025,21:19:50.70,-2.44,-1018.55,14.16,-0.79,2.35,-0.55,
05/25/2025,21:19:50.74,5.86,-1023.93,8.79,1.22,1.92,0.27,
05/25/2025,21:19:50.76,0.00,-1028.32,10.25,1.59,-1.40,-1.07,
05/25/2025,21:19:50.78,3.42,-1016.11,1.95,3.29,-2.59,1.74,
05/25/2025,21:19:50.80,3.91,-1021.97,-0.98,2.68,-0.27,2.41,
05/25/2025,21:19:50.82,-4.39,-1020.51,13.18,1.68,2.23,-0.82,
05/25/2025,21:19:50.85,9.77,-1016.60,10.25,1.59,2.56,-2.77,
05/25/2025,21:19:50.87,-12.21,-1020.51,6.84,0.46,1.68,-0.76,
05/25/2025,21:19:50.89,1.46,-1022.46,3.42,1.55,2.62,1.28,
05/25/2025,21:19:50.91,-5.86,-1025.39,-3.42,1.22,2.04,0.49,
05/25/2025,21:19:50.93,-2.93,-1028.81,2.44,3.48,1.80,-1.16,
05/25/2025,21:19:50.95,7.81,-1021.97,15.14,-0.52,2.53,-1.04,
05/25/2025,21:19:50.97,0.00,-1024.41,1.46,1.46,2.62,-0.67,
05/25/2025,21:19:50.99,5.37,-1021.48,0.98,2.59,0.06,0.06,
05/25/2025,21:19:51.01,14.65,-1030.27,-10.25,1.95,2.32,-1.46,
05/25/2025,21:19:51.03,1.46,-1029.30,8.79,0.79,2.01,-1.22,
05/25/2025,21:19:51.05,8.30,-1021.48,3.42,1.95,2.44,2.41,
05/25/2025,21:19:51.07,-5.37,-1024.90,9.28,2.29,4.36,-1.07,
05/25/2025,21:19:51.09,0.49,-1021.48,16.60,1.31,3.38,-1.68,
05/25/2025,21:19:51.11,-4.39,-1018.07,-2.93,1.68,-0.67,0.21,
05/25/2025,21:19:51.13,-0.98,-1023.93,9.77,2.50,2.90,-2.29,
05/25/2025,21:19:51.15,-0.49,-1023.44,-0.49,2.62,2.26,-0.73,
05/25/2025,21:19:51.17,3.91,-1019.53,6.84,-0.55,3.66,1.34,
05/25/2025,21:19:51.19,6.35,-1021.97,6.84,0.43,4.18,0.21,
05/25/2025,21:19:51.21,-2.44,-1025.88,2.44,3.17,1.95,-3.11,
05/25/2025,21:19:51.26,0.00,-1020.51,0.49,1.07,1.40,-0.91,
05/25/2025,21:19:51.28,4.88,-1014.16,8.79,1.95,-0.18,0.67,
05/25/2025,21:19:51.30,10.74,-1016.11,3.91,1.74,5.79,-0.70,
05/25/2025,21:19:51.32,-3.91,-1021.00,3.42,1.89,3.26,-0.15,
05/25/2025,21:19:51.34,7.81,-1039.06,18.07,1.46,3.63,0.12,
05/25/2025,21:19:51.36,5.37,-1023.44,6.84,3.81,1.43,-1.49,
05/25/2025,21:19:51.38,13.67,-1025.39,-2.93,2.13,2.71,-1.49,
05/25/2025,21:19:51.40,-1.95,-1011.72,21.00,1.62,1.65,-2.53,
05/25/2025,21:19:51.42,-4.88,-1023.44,8.79,0.40,0.40,-0.27,
05/25/2025,21:19:51.44,7.32,-1014.65,3.42,-0.40,0.24,-3.72,
05/25/2025,21:19:51.46,11.72,-1015.14,14.16,-0.09,4.63,-1.04,
05/25/2025,21:19:51.48,-3.91,-1019.04,5.37,1.59,2.56,0.76,
05/25/2025,21:19:51.50,17.58,-1024.41,6.84,-0.27,1.89,-2.10,
05/25/2025,21:19:51.52,15.62,-1031.25,-4.88,-0.09,0.00,1.43,
05/25/2025,21:19:51.54,0.98,-1014.65,0.49,1.22,1.16,-1.59,
05/25/2025,21:19:51.56,-1.95,-1027.34,-2.93,0.00,2.50,0.70,
05/25/2025,21:19:51.58,-5.37,-1020.51,16.11,0.49,3.11,-1.10,
05/25/2025,21:19:51.60,11.23,-1035.64,9.28,2.87,-0.49,-2.23,
05/25/2025,21:19:51.62,5.86,-1022.95,14.65,2.16,1.34,-0.52,
05/25/2025,21:19:51.64,16.11,-1026.86,9.77,2.26,5.95,0.49,
05/25/2025,21:19:51.66,5.86,-1021.97,10.25,0.91,1.19,0.79,
05/25/2025,21:19:51.68,3.42,-1016.11,-2.93,0.06,0.82,-4.54,
05/25/2025,21:19:51.70,-0.98,-1014.16,7.32,1.37,1.92,-3.11,
05/25/2025,21:19:51.72,21.48,-1012.70,8.79,2.80,0.98,1.46,
05/25/2025,21:19:51.77,1.46,-1025.88,6.84,2.44,1.80,-1.25,
05/25/2025,21:19:51.79,9.28,-1018.07,5.86,2.23,3.23,-2.65,
05/25/2025,21:19:51.81,-2.44,-1018.07,15.62,1.77,2.01,-0.06,
05/25/2025,21:19:51.83,1.46,-1009.77,6.35,1.92,-3.38,-3.81,
05/25/2025,21:19:51.85,1.46,-1020.51,0.49,1.04,-3.66,-0.24,
05/25/2025,21:19:51.87,2.93,-1006.35,8.30,0.91,0.00,-1.31,
05/25/2025,21:19:51.89,-1.46,-1009.28,2.93,2.01,2.65,-3.14,
05/25/2025,21:19:51.91,5.86,-1013.18,12.70,2.13,0.98,2.29,
05/25/2025,21:19:51.93,-2.44,-1016.60,1.46,0.27,2.13,-2.77,
05/25/2025,21:19:51.95,1.95,-1021.48,14.65,0.73,3.78,-2.04,
05/25/2025,21:19:51.97,4.88,-1016.60,-0.98,5.15,2.50,3.78,
05/25/2025,21:19:51.99,-10.25,-1023.93,56.15,3.45,-5.06,-2.07,
05/25/2025,21:19:52.01,-2.44,-1018.07,2.93,1.10,-1.83,-0.95,
05/25/2025,21:19:52.03,16.60,-1030.76,13.18,0.40,3.08,4.05,
05/25/2025,21:19:52.05,9.77,-1025.39,11.72,-0.15,-0.06,1.98,
05/25/2025,21:19:52.07,9.77,-1020.02,5.86,1.74,0.85,1.43,
05/25/2025,21:19:52.09,4.39,-1018.55,-3.42,1.25,1.49,-2.23,
05/25/2025,21:20:07.97,-532.71,-627.93,-600.59,6.16,-0.18,-1.04,
05/25/2025,21:20:08.03,-512.21,-646.97,-616.70,1.16,2.01,-1.68,
05/25/2025,21:20:08.05,-548.34,-637.21,-612.79,1.40,2.23,0.61,
05/25/2025,21:20:08.07,-539.06,-638.18,-621.58,3.66,1.55,2.35,
05/25/2025,21:20:08.09,-510.74,-659.18,-620.12,1.98,-0.40,0.76,
05/25/2025,21:20:08.11,-520.02,-646.00,-607.42,-0.03,2.04,-3.02,
05/25/2025,21:20:08.13,-516.60,-636.23,-621.58,-1.10,5.21,0.46,
05/25/2025,21:20:08.15,-504.88,-634.77,-592.29,1.13,2.01,0.00,
05/25/2025,21:20:08.17,-521.48,-659.18,-593.75,-0.49,2.84,3.75,
05/25/2025,21:20:08.19,-507.81,-629.88,-582.52,-2.13,1.22,2.65,
05/25/2025,21:20:08.21,-495.61,-641.60,-600.10,-4.09,5.43,2.74,
05/25/2025,21:20:08.23,-475.59,-628.42,-600.10,-1.86,1.40,5.52,
05/25/2025,21:20:08.25,-473.63,-622.07,-597.17,-1.80,1.28,11.71,
05/25/2025,21:20:08.27,-528.81,-599.61,-623.05,-2.35,0.18,19.15,
05/25/2025,21:20:08.29,-552.73,-619.14,-625.00,-2.62,2.07,12.93,
05/25/2025,21:20:08.31,-534.18,-587.40,-630.86,-1.92,10.15,17.96,
05/25/2025,21:20:08.33,-601.07,-629.39,-648.93,2.74,8.96,13.41,
05/25/2025,21:20:08.35,-571.78,-625.00,-653.32,8.57,8.20,2.74,
05/25/2025,21:20:08.37,-576.66,-650.39,-645.02,13.84,1.01,-3.66,
05/25/2025,21:20:08.39,-515.62,-646.48,-605.96,17.62,-5.95,-4.54,
05/25/2025,21:20:08.41,-538.57,-643.55,-600.10,14.15,-11.37,0.12,
05/25/2025,21:20:08.43,-550.29,-617.68,-587.40,9.36,-25.30,-1.31,
05/25/2025,21:20:08.45,-526.86,-598.63,-607.91,6.62,-22.90,-5.88,
05/25/2025,21:20:08.47,-548.83,-641.60,-586.43,13.45,-41.37,-1.65,
05/25/2025,21:20:08.49,-618.65,-641.60,-633.30,10.43,-45.43,5.40,
05/25/2025,21:20:08.56,-584.96,-712.89,-617.19,58.96,-136.98,40.61,
05/25/2025,21:20:08.58,-625.49,-681.15,-538.57,104.02,-183.20,56.74,
05/25/2025,21:20:08.60,-733.89,-631.84,-285.64,97.59,-191.37,52.07,
05/25/2025,21:20:08.62,-844.24,-575.20,-16.60,61.65,-259.79,47.04,
05/25/2025,21:20:08.64,-768.07,-561.04,-11.72,-12.87,-272.23,51.74,
05/25/2025,21:20:08.66,-657.23,-510.25,-173.83,-144.94,-196.43,44.30,
05/25/2025,21:20:08.68,-710.45,-624.51,-587.40,-173.20,-145.58,51.77,
05/25/2025,21:20:08.70,-823.24,-543.95,-456.54,-97.62,-114.88,56.31,
05/25/2025,21:20:08.72,-887.70,-508.30,-172.85,-71.34,-123.45,57.99,
05/25/2025,21:20:08.74,-777.83,-417.48,-64.45,-113.48,-234.05,54.48,
05/25/2025,21:20:08.76,-916.50,-497.07,-329.10,-147.04,-211.80,59.88,
05/25/2025,21:20:08.78,-789.55,-562.01,-465.82,-163.17,-131.71,20.70,
05/25/2025,21:20:08.80,-825.68,-604.49,-556.15,-98.75,-32.13,36.43,
05/25/2025,21:20:08.82,-660.64,-270.02,-462.89,-8.35,0.52,95.15,
05/25/2025,21:20:08.84,-736.33,-455.08,-507.81,47.04,80.52,147.10,
05/25/2025,21:20:08.86,-1261.23,-368.65,-172.85,128.66,115.06,174.02,
05/25/2025,21:20:08.88,-1533.69,-169.92,164.06,49.54,-84.45,18.41,
05/25/2025,21:20:08.90,-1128.91,-311.52,-106.45,55.95,-97.87,26.13,
05/25/2025,21:20:08.92,-1110.35,-366.21,198.24,144.60,-229.30,-14.76,
05/25/2025,21:20:08.94,-1012.21,-433.59,25.39,148.84,-180.37,-14.63,
05/25/2025,21:20:08.96,-1088.38,-382.81,256.35,160.73,-50.58,-26.86,
05/25/2025,21:20:08.98,-896.00,-106.45,1222.17,328.93,-82.74,-55.61,
05/25/2025,21:20:09.00,-741.70,-104.00,1145.02,159.24,-108.99,-55.21,
05/25/2025,21:20:09.05,-703.12,-533.69,424.32,61.52,58.75,-44.76,
05/25/2025,21:20:09.07,-820.80,-638.67,212.89,131.55,143.60,-111.46,
05/25/2025,21:20:09.09,-428.22,-268.55,359.38,37.35,-29.94,-45.40,
05/25/2025,21:20:09.11,-692.87,-463.38,304.69,88.60,100.73,-4.39,
05/25/2025,21:20:09.13,-839.36,-354.00,83.50,157.50,59.30,94.63,
05/25/2025,21:20:09.15,-821.29,-337.89,177.73,204.85,82.44,20.06,
05/25/2025,21:20:09.17,-803.71,-228.52,226.07,270.27,59.15,24.21,
05/25/2025,21:20:09.19,-1187.99,-48.34,322.27,309.73,118.23,9.09,
05/25/2025,21:20:09.21,-1404.30,2.44,312.01,263.90,84.91,-93.51,
05/25/2025,21:20:09.23,-1494.63,22.95,303.71,296.43,75.30,-195.09,
05/25/2025,21:20:09.25,-1362.79,-303.22,-128.91,159.63,160.12,-224.24,
05/25/2025,21:20:09.27,-721.19,731.45,632.81,456.31,587.47,-329.88,
05/25/2025,21:20:09.29,-1103.03,-215.33,-22.46,229.73,697.77,-228.72,
05/25/2025,21:20:09.31,-567.38,-367.19,143.55,29.02,319.36,-47.62,
05/25/2025,21:20:09.34,-720.21,-172.36,-426.27,257.44,-218.90,83.35,
05/25/2025,21:20:09.36,-814.45,-209.96,-771.48,323.51,-149.79,67.65,
05/25/2025,21:20:09.38,-922.85,-143.55,355.96,371.46,276.83,99.18,
05/25/2025,21:20:09.40,-899.90,-306.15,521.00,311.49,-4.48,88.93,
05/25/2025,21:20:09.42,-1025.88,-234.86,966.80,116.04,-26.04,92.68,
05/25/2025,21:20:09.44,-1310.06,-325.20,-40.04,40.43,219.21,-36.31,
05/25/2025,21:20:09.46,-687.99,-323.24,-460.45,89.05,177.65,-58.63,
05/25/2025,21:20:09.48,-540.04,-337.89,36.13,90.70,-33.11,21.34,
05/25/2025,21:20:09.50,-844.24,-391.60,54.69,51.55,78.66,13.84,
05/25/2025,21:20:09.52,-724.61,-349.61,-72.75,33.32,156.68,24.97,
05/25/2025,21:20:09.57,-443.36,-218.26,-92.29,104.45,274.18,19.51,
05/25/2025,21:20:09.59,-555.18,-146.00,-78.61,138.38,236.10,18.60,
05/25/2025,21:20:09.61,-320.31,-69.82,-55.18,148.26,-197.68,69.70,
05/25/2025,21:20:09.63,-308.11,-1.95,390.62,212.56,-268.60,186.65,
05/25/2025,21:20:09.65,-638.18,-33.69,608.40,141.25,-141.07,288.41,
05/25/2025,21:20:09.67,-1124.51,634.77,374.51,47.56,82.93,348.72,
05/25/2025,21:20:09.69,-1884.28,-18.07,391.11,58.69,-341.22,332.44,
05/25/2025,21:20:09.71,-1676.76,90.82,210.45,31.92,24.02,315.88,
05/25/2025,21:20:09.73,-1511.23,275.88,-277.83,123.45,103.11,346.31,
05/25/2025,21:20:09.75,-1801.27,169.92,1077.15,64.48,164.27,348.45,
05/25/2025,21:20:09.77,-1659.67,864.26,423.83,-149.48,-1.34,254.36,
05/25/2025,21:20:09.79,-1663.57,730.47,-32.23,-124.94,240.58,184.02,
05/25/2025,21:20:09.81,-2288.09,555.66,484.86,-211.74,126.04,93.99,
05/25/2025,21:20:09.83,-2122.56,734.86,-357.42,-408.48,90.82,-24.63,
05/25/2025,21:20:09.85,-1802.25,321.78,-1668.46,-326.77,169.45,-252.80,
05/25/2025,21:20:09.87,-585.45,92.29,-3698.73,-62.13,4.42,-288.54,
05/25/2025,21:20:09.89,794.43,240.72,-1398.93,333.32,16.19,14.91,
05/25/2025,21:20:09.91,-655.76,-98.63,1273.44,280.27,-72.87,131.04,
05/25/2025,21:20:09.93,-247.56,444.34,639.65,27.29,143.78,137.23,
05/25/2025,21:20:09.95,-886.72,198.73,126.46,-106.62,75.58,213.08,
05/25/2025,21:20:09.97,-948.24,-67.38,-469.24,-122.90,-98.48,111.19,
05/25/2025,21:20:09.99,-692.38,-157.71,-155.27,-28.17,-327.35,60.76,
05/25/2025,21:20:10.01,-310.55,319.34,-488.28,74.33,-330.70,-14.79,
05/25/2025,21:20:10.03,-132.32,269.53,157.23,175.43,-189.45,34.57,
05/25/2025,21:20:10.08,-72.75,712.40,220.70,185.21,96.25,158.11,
05/25/2025,21:20:10.10,-420.41,637.70,-228.03,193.66,-25.82,176.34,
05/25/2025,21:20:10.12,-580.08,531.74,-612.30,234.42,212.07,21.34,
05/25/2025,21:20:10.14,-727.54,709.47,-644.53,247.38,209.02,-1.01,
05/25/2025,21:20:10.16,-800.78,589.36,-786.62,245.98,290.98,-43.11,
05/25/2025,21:20:10.18,-307.13,806.15,-822.75,223.17,208.17,-15.03,
05/25/2025,21:20:10.20,-492.68,692.38,-738.28,235.73,193.90,13.48,
05/25/2025,21:20:10.22,-338.87,717.77,-630.86,186.04,134.54,-1.04,
05/25/2025,21:20:10.24,-437.01,564.94,-828.12,111.04,155.00,-6.22,
05/25/2025,21:20:10.26,-373.54,647.46,-799.32,59.85,147.13,-15.46,
05/25/2025,21:20:10.28,-413.57,370.61,-1003.42,-2.20,123.90,-14.48,
05/25/2025,21:20:10.30,-732.91,388.67,-3201.17,-3.51,204.82,-63.32,
05/25/2025,21:20:10.32,-195.80,536.13,-958.50,428.41,628.87,-132.80,
05/25/2025,21:20:10.34,-219.73,293.95,-531.74,-35.37,52.07,-41.01,
05/25/2025,21:20:10.36,-305.18,486.82,-1069.82,-96.74,63.99,-106.77,
05/25/2025,21:20:10.38,126.46,564.45,-1248.54,7.87,44.09,-84.21,
05/25/2025,21:20:10.40,47.36,481.93,-1035.64,21.62,-13.72,-8.48,
05/25/2025,21:20:10.42,-214.36,382.32,-1046.88,18.32,-1.01,-3.75,
05/25/2025,21:20:10.44,-166.99,-41.50,430.66,791.95,186.98,598.38,
05/25/2025,21:20:10.46,-98.63,-34.18,-1482.42,282.35,468.26,-124.05,
05/25/2025,21:20:10.48,849.12,-274.90,-5461.91,154.39,129.91,-66.16,
05/25/2025,21:20:10.50,-914.55,-48.34,95.70,-18.60,52.50,-70.70,
05/25/2025,21:20:10.52,136.72,118.16,-790.04,-5.18,33.48,-148.66,
05/25/2025,21:20:10.54,442.87,266.60,-679.69,17.62,-3.14,-79.39,
05/25/2025,21:20:10.60,209.96,127.93,-1166.02,-4.24,-15.76,-20.34,
05/25/2025,21:20:10.62,211.91,119.63,-1527.83,0.43,5.03,-9.09,
05/25/2025,21:20:10.64,-54.69,305.18,-61.52,-16.04,-64.76,-6.92,
05/25/2025,21:20:10.66,-274.41,-44.43,-609.38,-1.55,-11.86,-18.08,
05/25/2025,21:20:10.68,-188.96,287.11,-1000.49,6.28,10.37,-21.22,
05/25/2025,21:20:10.70,128.91,60.06,-1104.49,-0.34,7.59,-21.55,
05/25/2025,21:20:10.72,17.09,11.72,-1006.84,2.71,2.26,-2.23,
05/25/2025,21:20:10.74,17.58,9.77,-1013.18,-0.09,0.37,-3.17,
05/25/2025,21:20:10.76,21.97,5.86,-1027.83,0.30,1.04,-2.84,
05/25/2025,21:20:10.78,13.18,13.67,-1034.67,1.46,0.85,-3.20,
05/25/2025,21:20:10.80,9.28,3.91,-1017.09,4.63,-0.27,1.86,
05/25/2025,21:20:10.82,13.18,17.09,-1025.88,1.01,1.19,-1.55,
05/25/2025,21:20:10.84,20.02,22.95,-1036.13,1.49,2.38,-2.26,
05/25/2025,21:20:10.86,11.72,8.79,-1027.83,1.43,0.21,-1.46,
05/25/2025,21:20:10.88,24.90,13.18,-1029.30,0.64,1.37,-0.61,
05/25/2025,21:20:10.90,13.18,1.95,-1027.83,0.82,1.65,-2.84,
05/25/2025,21:20:10.92,17.58,9.28,-1022.46,0.21,3.20,-0.30,
05/25/2025,21:20:10.94,17.09,5.86,-1026.86,2.01,0.82,1.46,
05/25/2025,21:20:10.96,23.44,11.72,-1017.09,0.95,2.59,-1.52,
05/25/2025,21:20:10.98,13.67,11.23,-1020.51,1.10,2.26,-1.16,
05/25/2025,21:20:11.00,0.49,20.51,-1023.93,1.01,0.58,2.16,
05/25/2025,21:20:11.02,11.23,19.04,-1009.77,2.04,1.37,-1.95,
05/25/2025,21:20:11.04,14.16,-0.98,-1034.18,2.32,3.45,-0.46,
05/25/2025,21:20:11.06,17.58,13.18,-1029.30,1.43,1.83,1.04,
05/25/2025,21:20:11.12,30.27,5.86,-1013.67,-0.09,1.59,-1.71,
05/25/2025,21:20:11.14,19.04,7.32,-1028.32,-1.80,1.98,-1.77,
05/25/2025,21:20:11.16,15.62,7.81,-1022.95,0.70,0.12,0.18,
05/25/2025,21:20:11.18,22.46,14.65,-1030.27,1.37,2.07,-1.80,
05/25/2025,21:20:11.20,9.77,11.72,-1024.41,2.04,3.08,0.70,
05/25/2025,21:20:11.22,20.02,20.02,-1022.46,3.14,2.50,-0.34,
05/25/2025,21:20:11.24,14.16,11.23,-1033.20,2.93,1.98,-1.46,
05/25/2025,21:20:11.26,7.32,17.09,-1021.00,3.32,1.68,-0.06,
05/25/2025,21:20:11.28,20.51,20.02,-1019.04,1.52,1.74,-0.12,
05/25/2025,21:20:11.30,18.07,3.91,-1017.09,3.84,1.46,1.68,
05/25/2025,21:20:11.32,20.02,12.21,-1021.00,0.67,-0.06,1.10,
05/25/2025,21:20:11.34,8.30,14.16,-1025.39,0.12,1.92,1.13,
05/25/2025,21:20:11.36,32.71,12.70,-1017.09,1.92,2.84,-1.95,
05/25/2025,21:20:11.38,23.93,9.77,-1027.34,2.53,1.80,0.58,
05/25/2025,21:20:11.40,7.81,0.00,-1029.79,3.32,-0.21,1.31,
05/25/2025,21:20:11.42,29.30,16.60,-1017.58,-1.55,1.98,-1.74,
05/25/2025,21:20:11.44,6.84,6.84,-1015.62,2.10,0.61,2.74,
05/25/2025,21:20:11.46,21.48,16.60,-1024.41,1.49,2.96,-0.24,
05/25/2025,21:20:11.48,9.77,9.77,-1022.46,1.10,0.49,-3.32,
05/25/2025,21:20:11.50,12.21,19.53,-1024.41,2.16,1.71,1.49,
05/25/2025,21:20:11.52,24.41,17.09,-1023.93,1.43,1.71,-2.41,
05/25/2025,21:20:11.54,18.07,13.18,-1016.11,-0.46,0.55,-4.85,
05/25/2025,21:20:11.56,13.67,9.77,-1025.39,0.82,0.30,-5.43,
05/25/2025,21:20:11.58,19.53,6.84,-1015.62,2.07,-0.06,0.79,
05/25/2025,21:20:11.63,24.90,2.93,-1027.83,2.80,2.35,0.37,
05/25/2025,21:20:11.65,13.67,10.25,-1012.21,2.90,1.31,-3.93,
05/25/2025,21:20:11.67,20.02,7.32,-1037.11,0.67,1.98,-2.93,
05/25/2025,21:20:11.69,13.67,2.93,-1032.71,1.16,3.11,-3.32,
05/25/2025,21:20:11.71,21.48,18.07,-1020.02,1.40,1.71,-3.02,
05/25/2025,21:20:11.73,12.21,6.35,-1025.39,2.16,2.23,-2.68,
05/25/2025,21:20:11.75,24.90,22.95,-1026.37,4.18,1.77,-1.95,
05/25/2025,21:20:11.77,24.41,11.72,-1022.95,1.59,1.59,-0.76,
05/25/2025,21:20:11.79,28.81,-5.86,-1016.60,0.52,1.62,2.59,
05/25/2025,21:20:11.81,17.58,12.21,-1029.79,1.74,0.00,0.85,
05/25/2025,21:20:11.84,12.21,13.67,-1017.09,0.30,2.96,-1.86,
05/25/2025,21:20:11.86,18.07,17.09,-1024.41,3.32,3.75,0.88,
05/25/2025,21:20:11.88,12.70,11.72,-1026.86,3.17,0.95,-0.52,
05/25/2025,21:20:11.90,18.55,5.86,-1019.53,0.43,3.45,0.24,
05/25/2025,21:20:11.92,21.48,10.74,-1038.09,1.34,0.67,2.38,
05/25/2025,21:20:11.94,1.46,9.28,-1041.99,1.92,0.67,-0.76,
05/25/2025,21:20:11.96,25.88,7.32,-1021.97,0.55,2.44,-3.23,
05/25/2025,21:20:11.98,15.14,7.32,-1015.14,1.04,2.23,-3.93,
05/25/2025,21:20:12.00,17.58,7.32,-1029.30,2.87,3.72,0.88,
05/25/2025,21:20:12.02,27.34,0.98,-1017.58,1.46,2.59,-0.37,
05/25/2025,21:20:12.04,13.67,-2.93,-1028.81,0.43,2.77,-0.34,
05/25/2025,21:20:12.06,21.48,18.55,-1025.88,0.18,1.19,-0.09,
05/25/2025,21:20:12.08,18.07,10.25,-1020.51,-0.27,2.47,0.24,
05/25/2025,21:20:12.10,14.65,15.62,-1020.51,0.09,0.03,-3.51,
05/25/2025,21:20:12.15,16.11,25.88,-1025.88,0.46,1.74,-2.23,
05/25/2025,21:20:12.17,2.44,-2.44,-1029.30,2.16,2.26,-1.46,
05/25/2025,21:20:12.19,7.32,7.81,-1025.39,1.92,2.50,-0.43,
05/25/2025,21:20:12.21,15.14,5.86,-1020.51,0.55,2.90,1.19,
05/25/2025,21:20:12.23,14.16,16.11,-1018.07,1.52,2.10,0.27,
05/25/2025,21:20:12.25,0.49,-1.95,-1019.04,1.04,1.55,-0.58,
05/25/2025,21:20:12.27,13.67,10.74,-1035.16,0.73,2.32,-2.07,
05/25/2025,21:20:12.29,18.55,9.28,-1013.67,2.59,2.10,0.40,
05/25/2025,21:20:12.31,14.16,10.74,-1019.04,0.88,1.62,0.91,
05/25/2025,21:20:12.33,12.70,10.25,-1028.32,3.78,1.13,0.49,
05/25/2025,21:20:12.35,19.04,3.42,-1021.00,-0.30,1.10,-0.73,
05/25/2025,21:20:12.37,13.67,5.86,-1028.81,3.72,-0.61,0.52,
05/25/2025,21:20:12.39,16.11,17.09,-1024.41,1.04,0.64,0.12,
05/25/2025,21:20:12.41,25.39,1.46,-1024.90,1.74,0.88,0.46,
05/25/2025,21:20:12.43,4.39,10.25,-1030.76,1.13,0.67,-0.03,
05/25/2025,21:20:12.45,8.79,13.67,-1020.51,2.07,1.31,-0.79,
05/25/2025,21:20:12.47,2.93,-3.91,-1024.41,3.14,2.44,-4.30,
05/25/2025,21:20:12.49,16.11,17.09,-1031.25,1.19,1.98,-3.99,
05/25/2025,21:20:12.51,13.18,10.25,-1021.97,-0.61,0.95,-0.18,
05/25/2025,21:20:12.53,17.09,22.95,-1025.39,0.61,1.86,-0.40,
05/25/2025,21:20:12.55,-1.46,6.35,-1035.16,2.65,-0.67,0.98,
05/25/2025,21:20:12.57,14.65,8.79,-1027.83,1.83,2.99,0.91,
05/25/2025,21:20:12.59,21.48,8.30,-1026.37,1.59,0.37,1.62,
05/25/2025,21:20:12.61,18.07,13.18,-1021.00,1.22,2.65,-1.25,
05/25/2025,21:20:12.66,22.46,7.32,-1026.37,0.70,4.91,-1.07,
05/25/2025,21:20:12.68,7.81,1.95,-1029.30,2.29,1.71,-1.46,
05/25/2025,21:20:12.70,-3.91,4.39,-1027.34,0.06,3.57,1.19,
05/25/2025,21:20:12.72,11.72,10.74,-1030.27,2.68,1.37,-2.62,
05/25/2025,21:20:12.74,5.37,3.42,-1031.74,1.31,0.15,1.19,
05/25/2025,21:20:12.76,9.77,7.81,-1010.74,0.00,1.04,-0.95,
05/25/2025,21:20:12.78,21.97,0.49,-1026.37,1.34,1.68,-4.66,
05/25/2025,21:20:12.80,24.41,8.79,-1021.00,1.74,2.16,0.79,
05/25/2025,21:20:12.82,11.72,8.30,-1024.41,1.52,0.64,2.90,
05/25/2025,21:20:12.84,11.23,16.11,-1023.93,1.43,-0.21,2.68,
05/25/2025,21:20:12.86,14.65,6.35,-1028.32,0.37,2.41,-0.91,
05/25/2025,21:20:12.88,11.23,9.77,-1030.27,1.98,2.59,1.74,
05/25/2025,21:20:12.90,21.48,12.70,-1014.65,0.24,3.69,2.90,
05/25/2025,21:20:12.92,17.58,12.21,-1022.46,-0.18,1.83,-0.27,
05/25/2025,21:20:12.94,20.02,4.39,-1026.37,1.92,0.09,0.06,
05/25/2025,21:20:12.96,10.25,19.53,-1016.11,2.35,-0.55,-1.98,
05/25/2025,21:20:12.98,7.32,3.42,-1017.58,4.88,1.19,-1.49,
05/25/2025,21:20:13.00,5.86,11.72,-1012.70,1.43,2.47,-0.15,
05/25/2025,21:20:13.02,4.88,0.98,-1028.81,1.31,2.59,-1.34,
05/25/2025,21:20:13.04,21.00,12.70,-1020.51,2.62,0.46,-2.13,
05/25/2025,21:20:13.06,15.62,1.95,-1015.14,0.88,3.90,-1.22,
05/25/2025,21:20:13.08,17.09,8.30,-1034.18,0.58,0.58,-2.44,
05/25/2025,21:20:13.10,16.11,11.23,-1021.97,1.07,1.01,-3.84,
05/25/2025,21:20:13.12,23.93,8.30,-1033.20,2.23,3.26,-3.87,
05/25/2025,21:20:13.17,6.84,14.16,-1023.93,2.62,2.35,1.07,
05/25/2025,21:20:13.19,11.23,7.32,-1021.00,3.05,0.91,0.49,
05/25/2025,21:20:13.21,26.86,6.35,-1033.20,0.61,0.27,-4.54,
05/25/2025,21:20:13.23,12.70,9.28,-1019.04,0.91,0.73,-1.68,
05/25/2025,21:20:13.25,1.46,0.49,-1027.83,1.52,2.77,0.30,
05/25/2025,21:20:13.27,24.90,7.81,-1022.46,-0.58,2.41,-2.35,
05/25/2025,21:20:13.29,7.81,3.42,-1021.00,3.45,3.75,-1.07,
05/25/2025,21:20:13.31,26.37,8.30,-1032.71,1.16,0.98,-0.24,
05/25/2025,21:20:13.33,11.23,16.11,-1027.34,2.13,1.31,-0.70,
05/25/2025,21:20:13.35,18.55,6.84,-1025.39,1.74,2.87,-2.80,
05/25/2025,21:20:13.37,-1.46,17.09,-1023.44,-0.88,3.02,-1.55,
05/25/2025,21:20:13.39,24.90,16.60,-1024.41,1.59,2.41,-1.22,
05/25/2025,21:20:13.41,23.44,12.70,-1017.58,1.10,2.04,-1.83,
05/25/2025,21:20:13.43,11.72,8.30,-1025.88,3.38,1.28,1.07,
05/25/2025,21:20:13.45,20.51,13.18,-1020.51,1.77,1.74,-1.89,
05/25/2025,21:20:13.47,17.58,-5.86,-1015.62,2.35,0.70,-3.38,
05/25/2025,21:20:13.49,-0.98,14.16,-1027.83,1.95,3.08,-0.58,
05/25/2025,21:20:13.51,15.62,7.81,-1030.76,2.87,1.62,0.49,
05/25/2025,21:20:13.53,11.23,3.42,-1018.07,0.52,2.35,-1.49,
05/25/2025,21:20:13.55,19.53,-0.49,-1027.83,1.40,2.32,-2.16,
05/25/2025,21:20:13.57,23.44,6.84,-1023.44,2.99,-0.37,-2.01,
05/25/2025,21:20:13.59,16.11,18.07,-1021.00,1.16,0.12,2.10,
05/25/2025,21:20:13.61,23.93,6.35,-1019.53,2.87,3.17,-2.53,
05/25/2025,21:20:13.63,2.44,10.25,-1011.72,2.29,3.29,-0.27,
05/25/2025,21:20:13.68,14.65,7.32,-1012.21,2.47,3.23,-2.38,
05/25/2025,21:20:13.70,19.04,14.65,-1027.83,2.35,3.72,0.73,
05/25/2025,21:20:13.72,13.18,14.65,-1024.41,3.84,1.25,-0.67,
05/25/2025,21:20:13.74,28.32,9.77,-1036.62,0.52,1.22,-1.74,
05/25/2025,21:20:13.76,23.93,8.30,-1028.32,1.13,-0.76,0.64,
05/25/2025,21:20:13.78,17.58,10.25,-1021.48,2.84,1.83,-0.27,
05/25/2025,21:20:13.80,7.32,8.30,-1032.71,1.65,2.77,1.83,
05/25/2025,21:20:13.82,19.53,13.18,-1028.32,4.21,0.03,-2.23,
05/25/2025,21:20:13.84,13.67,10.74,-1024.90,1.77,3.17,0.24,
05/25/2025,21:20:13.86,14.16,16.60,-1026.86,-0.46,4.82,0.09,
05/25/2025,21:20:13.88,21.00,-4.88,-1021.48,1.01,0.58,-1.98,
05/25/2025,21:20:13.90,17.09,5.86,-1026.86,0.03,2.10,-0.58,
05/25/2025,21:20:13.92,7.81,20.02,-1024.90,1.10,2.38,3.05,
05/25/2025,21:20:13.94,21.00,19.04,-1030.27,1.13,2.87,-4.79,
05/25/2025,21:20:13.96,10.25,4.39,-1029.79,2.77,1.34,-1.49,
05/25/2025,21:20:13.98,28.32,3.91,-1025.39,0.37,1.74,4.24,
05/25/2025,21:20:14.00,25.88,11.72,-1013.18,2.47,1.13,-1.92,
05/25/2025,21:20:14.02,18.55,9.28,-1024.41,0.82,3.32,0.55,
05/25/2025,21:20:14.04,22.46,14.65,-1021.00,1.49,-0.61,2.59,
05/25/2025,21:20:14.06,11.72,6.35,-1020.51,2.20,3.51,0.37,
05/25/2025,21:20:14.08,17.09,21.00,-1025.39,1.74,2.53,-0.70,
05/25/2025,21:20:14.10,20.02,13.18,-1037.11,0.55,1.46,-0.43,
05/25/2025,21:20:14.12,14.16,7.32,-1018.07,1.01,0.98,2.65,
05/25/2025,21:20:14.14,23.44,11.23,-1019.04,1.01,2.01,-1.71,
05/25/2025,21:20:14.19,16.11,14.65,-1023.44,-0.61,2.99,0.82,
05/25/2025,21:20:14.21,24.90,8.79,-1019.04,2.38,3.41,-2.41,
05/25/2025,21:20:14.23,7.81,13.18,-1018.07,2.29,1.77,-1.22,
05/25/2025,21:20:14.25,17.58,-6.84,-996.58,1.80,1.65,-2.13,
05/25/2025,21:20:14.27,18.07,13.18,-1029.30,0.52,1.74,0.55,
05/25/2025,21:20:14.29,16.11,11.72,-1024.90,0.82,0.43,-0.46,
05/25/2025,21:20:14.31,19.53,14.16,-1022.95,1.37,1.07,0.61,
05/25/2025,21:20:14.33,11.72,6.84,-1021.97,0.73,2.56,-1.13,
05/25/2025,21:20:14.35,9.28,0.00,-1028.81,1.86,1.65,-1.62,
05/25/2025,21:20:14.37,15.62,12.70,-1024.41,1.19,0.58,-0.09,
05/25/2025,21:20:14.39,27.83,14.65,-1027.34,1.77,2.90,1.31,
05/25/2025,21:20:14.41,24.41,10.25,-1020.02,2.87,0.79,-0.49,
05/25/2025,21:20:14.43,27.34,2.93,-1029.30,2.38,1.10,-2.32,
05/25/2025,21:20:14.45,12.70,17.58,-1021.48,1.98,3.45,3.57,
05/25/2025,21:20:14.47,16.11,8.79,-1029.30,1.77,1.25,-2.16,
05/25/2025,21:20:14.49,19.04,0.49,-1023.44,-0.40,2.84,0.61,
05/25/2025,21:20:14.51,17.09,10.25,-1013.18,1.04,2.56,0.58,
05/25/2025,21:20:14.53,9.77,13.67,-1018.07,1.83,2.32,-1.80,
05/25/2025,21:20:14.55,14.65,3.42,-1024.90,2.68,1.95,-0.82,
05/25/2025,21:20:14.57,18.07,1.46,-1026.86,4.48,2.16,1.65,
05/25/2025,21:20:14.59,8.30,2.44,-1025.88,1.43,4.51,4.85,
05/25/2025,21:20:14.62,6.35,11.72,-1025.39,0.85,4.21,-2.87,
05/25/2025,21:20:14.64,20.51,11.72,-1026.37,1.65,1.83,0.64,
05/25/2025,21:20:14.66,19.04,8.79,-1015.62,0.82,2.87,-0.21,
05/25/2025,21:20:14.71,23.93,7.81,-1025.88,1.86,-0.40,-0.34,
05/25/2025,21:20:14.73,1.46,10.25,-1032.23,0.67,2.10,1.46,
05/25/2025,21:20:14.75,13.67,1.46,-1014.16,3.08,1.37,0.03,
05/25/2025,21:20:14.77,24.90,3.91,-1018.55,1.31,3.48,-3.45,
05/25/2025,21:20:14.79,4.88,15.14,-1025.88,2.32,2.96,-1.71,
05/25/2025,21:20:14.81,24.41,6.84,-1024.90,0.67,3.45,2.13,
05/25/2025,21:20:14.83,7.81,23.44,-1034.67,0.79,3.02,-4.27,
05/25/2025,21:20:14.85,14.65,9.28,-1031.74,1.19,0.24,0.52,
05/25/2025,21:20:14.87,22.46,-2.93,-1025.88,1.83,1.37,1.10,
05/25/2025,21:20:14.89,23.93,11.23,-1029.30,1.52,2.71,-2.13,
05/25/2025,21:20:14.91,28.81,6.84,-1023.44,1.46,0.24,-1.37,
05/25/2025,21:20:14.93,17.09,2.44,-1031.74,0.98,3.26,0.67,
05/25/2025,21:20:14.96,19.04,8.30,-1020.51,0.18,0.64,1.13,
05/25/2025,21:20:14.98,11.72,4.88,-1029.79,2.44,2.96,0.37,
05/25/2025,21:20:15.00,12.70,6.35,-1019.04,0.79,0.64,-1.83,
05/25/2025,21:20:15.02,17.09,1.95,-1033.69,3.02,2.87,-0.85,
05/25/2025,21:20:15.04,16.60,17.09,-1021.97,-0.34,1.89,-0.30,
05/25/2025,21:20:15.06,21.97,12.70,-1027.34,1.40,4.30,-0.88,
05/25/2025,21:20:15.08,19.53,17.58,-1023.44,0.00,2.01,0.30,
05/25/2025,21:20:15.10,16.11,8.79,-1017.58,1.68,3.02,-0.27,
05/25/2025,21:20:15.12,7.32,0.49,-1025.88,0.70,1.55,-0.06,
05/25/2025,21:20:15.14,11.72,18.55,-1018.07,3.11,1.16,0.09,
05/25/2025,21:20:15.16,20.02,18.07,-1027.34,0.61,2.13,-3.05,
05/25/2025,21:20:15.18,16.11,24.90,-1010.25,1.55,2.13,-1.52,
05/25/2025,21:20:15.23,16.11,20.51,-1026.86,-0.52,3.26,2.93,
05/25/2025,21:20:15.25,13.67,3.42,-1022.46,3.69,0.30,1.68,
05/25/2025,21:20:15.27,10.74,11.23,-1018.55,2.62,3.57,-2.26,
05/25/2025,21:20:15.29,18.55,8.30,-1021.48,-0.67,1.25,-0.70,
05/25/2025,21:20:15.31,7.81,16.11,-1010.25,1.22,2.84,-0.52,
05/25/2025,21:20:15.33,10.74,4.88,-1028.81,1.52,2.41,-2.53,
05/25/2025,21:20:15.35,22.46,12.70,-1021.00,2.99,0.34,1.86,
05/25/2025,21:20:15.37,14.65,0.98,-1021.48,2.68,2.32,-1.19,
05/25/2025,21:20:15.39,4.39,4.88,-1014.65,2.38,1.77,-1.46,
05/25/2025,21:20:15.41,9.77,7.81,-1039.06,1.37,1.10,-1.25,
05/25/2025,21:20:15.43,21.97,0.49,-1022.46,2.56,1.98,-2.32,
05/25/2025,21:20:15.45,15.14,-2.44,-1027.83,2.68,0.88,1.86,
05/25/2025,21:20:15.47,20.51,15.14,-1026.37,2.29,1.92,0.34,
05/25/2025,21:20:15.49,18.07,21.00,-1024.41,1.68,3.02,0.24,
05/25/2025,21:20:15.51,20.02,6.84,-1020.02,1.40,-0.06,-2.68,
05/25/2025,21:20:15.53,18.55,15.62,-1025.39,1.92,4.15,-1.04,
05/25/2025,21:20:15.55,5.86,9.77,-1023.44,2.10,0.40,0.98,
05/25/2025,21:20:15.57,12.21,2.44,-1022.46,1.89,3.78,2.65,
05/25/2025,21:20:15.59,25.88,2.44,-1029.30,2.23,3.02,1.46,
05/25/2025,21:20:15.61,24.90,-5.37,-1020.51,0.73,0.82,-1.04,
05/25/2025,21:20:15.63,17.09,9.28,-1021.48,2.99,2.59,-1.34,
05/25/2025,21:20:15.65,14.65,1.95,-1023.44,1.40,-0.46,-0.09,
05/25/2025,21:20:15.67,-0.49,8.79,-1023.44,2.87,3.26,-0.67,
05/25/2025,21:20:15.69,12.70,15.14,-1022.46,1.07,1.59,-1.55,
05/25/2025,21:20:15.74,14.65,10.25,-1017.58,0.91,3.32,-0.95,
05/25/2025,21:20:15.76,0.00,3.91,-1039.06,-0.21,1.71,-2.50,
05/25/2025,21:20:15.78,4.39,9.77,-1025.88,3.54,2.53,3.63,
05/25/2025,21:20:15.80,17.09,10.74,-1001.95,3.48,1.89,2.23,
05/25/2025,21:20:15.82,1.46,3.91,-1033.69,0.82,1.80,0.49,
05/25/2025,21:20:15.84,13.18,9.28,-1014.16,3.90,-0.21,-1.74,
05/25/2025,21:20:15.86,26.37,8.30,-1020.02,-1.77,2.29,-4.27,
05/25/2025,21:20:15.88,31.25,17.58,-1009.77,2.96,2.80,-0.06,
05/25/2025,21:20:15.90,21.00,19.53,-1010.74,-0.79,1.62,1.10,
05/25/2025,21:20:15.92,10.25,11.72,-1024.90,0.64,1.43,-0.12,
05/25/2025,21:20:15.94,15.14,10.74,-1016.11,2.41,1.01,-0.27,
05/25/2025,21:20:15.96,8.79,5.37,-1032.71,-0.85,3.78,0.30,
05/25/2025,21:20:15.98,2.93,1.46,-1025.39,1.22,3.75,-2.80,
05/25/2025,21:20:16.00,3.42,8.79,-1033.69,0.21,1.74,1.77,
05/25/2025,21:20:16.02,13.18,10.74,-1033.69,1.28,1.89,-2.29,
05/25/2025,21:20:16.04,15.14,1.95,-1031.74,-0.15,0.49,0.00,
05/25/2025,21:20:16.06,24.41,7.32,-1016.60,1.16,4.39,-2.04,
05/25/2025,21:20:16.08,19.53,5.86,-1031.25,1.49,3.20,0.06,
05/25/2025,21:20:16.10,16.11,-2.44,-1019.04,1.31,2.50,1.25,
05/25/2025,21:20:16.12,19.04,3.42,-1035.16,1.62,3.29,-1.65,
05/25/2025,21:20:16.14,23.93,-3.42,-1031.25,2.04,1.37,-0.40,
05/25/2025,21:20:16.16,16.60,35.16,-1032.71,1.98,3.17,-2.10,
05/25/2025,21:20:16.18,38.57,13.18,-1016.60,2.41,1.13,0.95,
05/25/2025,21:20:16.20,8.79,21.97,-994.63,3.05,0.24,1.68,
05/25/2025,21:20:16.25,12.70,4.39,-876.95,0.03,0.88,0.24,
05/25/2025,21:20:16.27,15.62,7.81,-986.33,2.16,-0.34,-0.61,
05/25/2025,21:20:16.29,-17.09,20.02,-978.52,1.31,1.07,0.49,
05/25/2025,21:20:16.31,-70.80,88.87,-712.89,-3.11,2.99,-5.95,
05/25/2025,21:20:16.33,-24.41,-4.39,-1069.82,-1.92,1.74,1.19,
05/25/2025,21:20:16.35,1.46,-12.21,-1071.78,2.44,1.77,-1.16,
05/25/2025,21:20:16.37,17.09,5.86,-1017.09,1.62,1.43,-1.89,
05/25/2025,21:20:16.39,50.78,-1.95,-1047.36,2.35,-0.46,-0.52,
05/25/2025,21:20:16.41,33.69,6.84,-1045.90,0.12,0.00,-1.37,
05/25/2025,21:20:16.43,21.00,2.44,-1037.11,-0.18,0.88,-1.77,
05/25/2025,21:20:16.45,3.91,19.53,-1025.88,1.59,1.46,-1.28,
05/25/2025,21:20:16.47,-17.58,18.55,-1000.49,-0.27,0.58,-2.77,
05/25/2025,21:20:16.49,8.79,24.90,-1005.37,3.35,-0.15,-1.49,
05/25/2025,21:20:16.51,1.46,26.37,-978.03,0.06,1.68,-0.06,
05/25/2025,21:20:16.53,24.41,14.16,-1046.88,-1.43,3.60,2.87,
05/25/2025,21:20:16.55,-5.86,15.62,-991.70,-0.79,2.32,-0.64,
05/25/2025,21:20:16.57,-39.55,20.02,-1009.28,1.25,2.35,-5.49,
05/25/2025,21:20:16.59,3.91,27.34,-958.98,-1.68,1.40,1.28,
05/25/2025,21:20:16.61,37.11,4.88,-979.49,1.19,4.30,-4.09,
05/25/2025,21:20:16.63,-1.95,19.53,-1039.55,-3.20,-0.70,1.16,
05/25/2025,21:20:16.65,29.30,57.13,-1141.11,-8.66,0.76,9.54,
05/25/2025,21:20:16.67,80.57,59.57,-975.59,4.30,1.74,-5.55,
05/25/2025,21:20:16.69,-8.30,7.81,-961.91,8.14,-0.12,5.58,
05/25/2025,21:20:16.71,11.72,8.79,-1120.12,-1.22,3.20,-3.87,
05/25/2025,21:20:16.76,-8.30,49.80,-983.40,-6.22,-8.29,-0.88,
05/25/2025,21:20:16.78,21.97,34.67,-933.59,0.37,-16.25,-6.01,
05/25/2025,21:20:16.80,149.41,83.50,-1033.69,9.94,10.37,-13.41,
05/25/2025,21:20:16.82,-135.74,-64.45,-454.10,15.18,-22.29,-7.29,
05/25/2025,21:20:16.84,-253.91,31.25,-729.98,-0.37,17.93,-10.46,
05/25/2025,21:20:16.86,-37.11,103.03,-660.16,-13.84,-61.13,-0.64,
05/25/2025,21:20:16.88,-142.58,77.15,191.89,-3.05,-17.23,-12.32,
05/25/2025,21:20:16.90,179.20,-13.18,-1404.79,11.43,20.30,-1.74,
05/25/2025,21:20:16.92,-104.49,20.51,-383.79,-5.15,-0.24,-10.34,
05/25/2025,21:20:16.94,114.75,34.18,-1109.86,2.26,5.09,-13.23,
05/25/2025,21:20:16.96,-37.11,31.74,-1013.18,-3.63,29.66,-24.02,
05/25/2025,21:20:16.98,53.71,-47.85,-1375.49,-1.43,-11.31,-21.55,
05/25/2025,21:20:17.00,-27.34,13.18,-689.94,5.64,36.22,-16.13,
05/25/2025,21:20:17.02,-128.91,67.38,-556.15,-4.85,-14.05,-21.37,
05/25/2025,21:20:17.04,57.13,106.45,-739.26,8.41,54.70,-28.08,
05/25/2025,21:20:17.06,69.82,21.00,-1097.66,0.91,-24.36,-17.87,
05/25/2025,21:20:17.08,65.92,48.83,-1130.37,7.44,22.84,-24.76,
05/25/2025,21:20:17.10,-40.53,21.97,-921.39,-0.95,10.91,-21.49,
05/25/2025,21:20:17.12,-145.51,-42.48,-570.80,-10.58,-19.51,-9.05,
05/25/2025,21:20:17.14,153.32,100.59,-915.53,-5.15,-13.38,-10.30,
05/25/2025,21:20:17.16,-41.50,-19.53,-947.27,-1.59,-0.34,-8.51,
05/25/2025,21:20:17.18,56.64,-9.77,-1305.18,4.76,1.83,-14.42,
05/25/2025,21:20:17.20,21.48,-15.62,-1103.52,-2.29,7.77,-17.44,
05/25/2025,21:20:17.22,48.34,38.09,-1107.42,-6.13,-1.77,0.70,
05/25/2025,21:20:17.27,-347.17,-461.91,-1176.27,-11.86,-13.87,19.21,
05/25/2025,21:20:17.29,163.09,104.49,-1266.11,-2.71,53.48,-3.45,
05/25/2025,21:20:17.31,-49.80,-100.10,-1895.02,10.79,27.23,11.98,
05/25/2025,21:20:17.33,-47.85,-50.29,-1762.70,-4.21,1.59,17.04,
05/25/2025,21:20:17.35,187.50,121.09,-1245.61,-3.05,-65.00,27.96,
05/25/2025,21:20:17.37,89.84,69.82,-1276.86,6.92,14.88,12.99,
05/25/2025,21:20:17.39,-30.76,-30.76,-1436.04,3.26,30.27,15.00,
05/25/2025,21:20:17.41,-53.22,-151.86,-950.68,-12.62,-14.94,29.02,
05/25/2025,21:20:17.43,-85.45,21.97,-1563.48,11.37,-36.65,12.13,
05/25/2025,21:20:17.45,-61.52,70.80,-1033.69,-2.68,-12.77,14.57,
05/25/2025,21:20:17.47,-92.29,-63.48,-1188.48,-4.39,-15.40,10.67,
05/25/2025,21:20:17.49,69.82,169.43,-667.48,-3.20,-15.15,11.22,
05/25/2025,21:20:17.51,73.24,71.78,-1013.67,-5.34,-8.26,11.62,
05/25/2025,21:20:17.53,-25.39,10.25,-1105.47,1.19,15.03,4.97,
05/25/2025,21:20:17.55,-15.14,72.27,-1049.32,2.84,5.46,-1.40,
05/25/2025,21:20:17.58,-87.89,39.55,-1069.82,0.30,-5.27,-2.20,
05/25/2025,21:20:17.60,-14.16,38.57,-1013.67,2.23,2.32,-2.04,
05/25/2025,21:20:17.62,18.07,43.46,-1033.20,-0.12,0.79,1.16,
05/25/2025,21:20:17.64,21.97,40.53,-1010.74,2.41,0.46,3.26,
05/25/2025,21:20:17.66,12.21,51.27,-1024.90,0.70,0.85,-0.82,
05/25/2025,21:20:17.68,29.30,65.43,-1018.55,0.58,-0.67,-0.61,
05/25/2025,21:20:17.70,3.91,63.48,-1028.32,1.74,3.14,0.61,
05/25/2025,21:20:17.72,6.35,47.85,-1029.79,1.59,3.75,-3.17,
05/25/2025,21:20:17.74,20.51,40.53,-1016.11,0.79,3.17,-0.70,
05/25/2025,21:20:17.79,9.77,38.09,-1011.72,1.52,4.76,-3.17,
05/25/2025,21:20:17.81,12.70,50.78,-1016.60,2.41,2.80,-1.25,
05/25/2025,21:20:17.83,20.02,62.01,-1016.11,1.65,2.04,-1.40,
05/25/2025,21:20:17.85,14.65,61.04,-1022.46,0.85,3.05,-0.30,
05/25/2025,21:20:17.87,12.70,52.73,-1026.37,1.13,2.84,-3.72,
05/25/2025,21:20:17.89,6.35,56.64,-1018.07,0.82,4.30,0.03,
05/25/2025,21:20:17.91,12.70,37.11,-1024.41,1.49,2.07,-0.64,
05/25/2025,21:20:17.93,5.86,52.73,-1015.62,-0.21,1.16,-2.84,
05/25/2025,21:20:17.95,10.74,24.41,-1025.88,0.52,-0.27,1.04,
05/25/2025,21:20:17.97,17.09,40.04,-1011.72,2.26,1.49,0.61,
05/25/2025,21:20:17.99,24.90,48.34,-1014.65,0.43,3.17,0.43,
05/25/2025,21:20:18.01,31.25,49.80,-1015.62,0.73,1.49,-0.52,
05/25/2025,21:20:18.03,26.37,53.71,-1026.86,0.98,0.34,-1.43,
05/25/2025,21:20:18.05,18.55,55.66,-1025.39,1.34,1.31,-1.68,
05/25/2025,21:20:18.07,9.77,51.76,-1018.55,2.65,1.80,-1.55,
05/25/2025,21:20:18.09,6.84,56.64,-1026.37,0.85,0.40,-2.84,
05/25/2025,21:20:18.11,2.44,61.04,-1024.41,-0.06,2.20,2.44,
05/25/2025,21:20:18.13,6.84,47.36,-1023.44,2.80,1.95,-0.40,
05/25/2025,21:20:18.15,11.23,56.15,-1024.41,2.13,2.23,-1.13,
05/25/2025,21:20:18.17,14.65,37.11,-1015.14,3.66,0.64,0.46,
05/25/2025,21:20:18.19,23.44,60.06,-1028.81,1.28,2.01,1.83,
05/25/2025,21:20:18.21,22.95,59.57,-1023.93,2.20,2.44,-0.49,
05/25/2025,21:20:18.23,24.41,56.64,-1022.95,1.55,2.47,0.73,
05/25/2025,21:20:18.25,18.55,54.69,-1021.48,3.69,2.74,-1.89,
05/25/2025,21:20:18.30,10.25,41.99,-1003.42,0.85,1.52,-0.52,
05/25/2025,21:20:18.32,20.02,52.25,-1022.95,1.83,2.80,0.30,
05/25/2025,21:20:18.34,16.60,60.55,-1018.07,-0.03,2.99,1.89,
05/25/2025,21:20:18.36,6.84,52.25,-1031.25,2.44,-0.37,-0.43,
05/25/2025,21:20:18.38,10.25,50.78,-1008.79,2.71,2.84,-0.49,
05/25/2025,21:20:18.40,19.04,37.11,-1018.07,2.26,-1.19,0.55,
05/25/2025,21:20:18.42,9.77,58.11,-1023.44,1.01,1.40,-1.46,
05/25/2025,21:20:18.44,9.77,60.06,-1019.53,-0.43,3.66,0.67,
05/25/2025,21:20:18.46,10.25,56.15,-1017.58,2.32,1.80,-2.44,
05/25/2025,21:20:18.48,21.48,49.32,-1021.97,1.49,2.44,1.77,
05/25/2025,21:20:18.50,19.53,51.27,-1021.48,3.90,-0.06,-1.16,
05/25/2025,21:20:18.52,12.21,53.22,-1026.37,1.59,2.59,0.58,
05/25/2025,21:20:18.54,5.86,49.32,-1014.16,3.23,2.47,-2.01,
05/25/2025,21:20:18.56,14.16,48.34,-1025.39,0.37,1.65,1.46,
05/25/2025,21:20:18.58,21.48,59.08,-1025.39,0.24,1.95,0.88,
05/25/2025,21:20:18.60,10.25,52.25,-1018.55,-1.04,1.98,-1.52,
05/25/2025,21:20:18.62,2.93,43.95,-1021.48,2.59,1.19,-1.40,
05/25/2025,21:20:18.64,15.62,54.69,-1016.11,3.41,1.68,-3.78,
05/25/2025,21:20:18.66,5.37,56.15,-1019.04,1.92,1.46,-1.62,
05/25/2025,21:20:18.68,20.02,45.41,-1016.60,1.34,2.56,1.07,
05/25/2025,21:20:18.70,11.72,54.20,-1028.81,0.46,2.93,-1.49,
05/25/2025,21:20:18.72,16.11,51.27,-1016.60,1.95,3.45,-2.80,
05/25/2025,21:20:18.74,10.25,56.64,-1024.41,1.01,1.83,-3.05,
05/25/2025,21:20:18.76,9.77,44.43,-1025.88,1.98,1.74,-0.12,
05/25/2025,21:20:18.81,18.55,47.36,-1021.97,0.46,0.55,-0.79,
05/25/2025,21:20:18.83,18.07,59.57,-1020.51,1.77,1.37,0.58,
05/25/2025,21:20:18.85,15.62,47.85,-1028.81,0.27,3.11,0.88,
05/25/2025,21:20:18.87,27.34,49.32,-1018.07,0.09,1.74,-2.50,
05/25/2025,21:20:18.89,14.65,50.78,-1010.74,1.16,2.10,-0.88,
05/25/2025,21:20:18.91,16.11,54.69,-1020.51,0.73,1.83,-1.28,
05/25/2025,21:20:18.93,9.77,48.34,-1013.18,1.46,3.05,-0.09,
05/25/2025,21:20:18.95,8.79,51.27,-1020.02,4.79,1.01,1.65,
05/25/2025,21:20:18.97,14.65,38.09,-1021.00,2.71,-0.52,2.32,
05/25/2025,21:20:18.99,21.48,50.78,-1031.25,-0.27,1.37,-2.90,
05/25/2025,21:20:19.01,6.35,52.73,-1021.00,-0.43,2.10,-1.83,
05/25/2025,21:20:19.03,20.51,54.69,-1011.72,0.98,3.99,2.87,
05/25/2025,21:20:19.05,22.46,43.95,-1020.02,1.62,1.25,-1.31,
05/25/2025,21:20:19.07,25.88,49.32,-1019.53,2.99,2.65,1.07,
05/25/2025,21:20:19.09,18.55,50.29,-1019.53,2.01,-0.12,2.20,
05/25/2025,21:20:19.11,16.11,49.80,-1024.41,0.98,0.21,0.67,
05/25/2025,21:20:19.13,26.37,44.92,-1014.65,2.01,3.57,0.76,
05/25/2025,21:20:19.15,0.00,45.41,-1013.67,1.55,3.14,-0.58,
05/25/2025,21:20:19.17,9.28,49.32,-1024.41,1.04,2.71,0.18,
05/25/2025,21:20:19.19,-0.49,41.02,-1016.60,1.07,2.96,-0.27,
05/25/2025,21:20:19.21,8.30,48.83,-1029.79,1.28,3.02,1.25,
05/25/2025,21:20:19.23,21.97,55.66,-1022.46,2.04,0.18,-1.71,
05/25/2025,21:20:19.25,7.32,41.50,-1028.32,0.52,1.62,0.15,
05/25/2025,21:20:19.27,16.11,56.15,-1027.83,1.04,2.71,1.07,
05/25/2025,21:20:19.32,27.83,50.29,-1022.95,0.82,1.89,2.23,
05/25/2025,21:20:19.34,18.07,54.20,-1028.32,0.49,3.23,-2.01,
05/25/2025,21:20:19.36,11.23,36.62,-1010.74,0.34,1.95,-0.98,
05/25/2025,21:20:19.38,13.18,44.43,-1023.44,-0.73,1.77,-2.32,
05/25/2025,21:20:19.40,10.74,60.55,-1012.70,0.85,1.43,0.70,
05/25/2025,21:20:19.42,7.32,55.18,-1020.51,0.61,1.19,1.31,
05/25/2025,21:20:19.44,17.09,45.90,-1019.53,1.25,2.71,-1.28,
05/25/2025,21:20:19.46,16.60,41.50,-1015.62,1.71,1.13,2.04,
05/25/2025,21:20:19.48,-0.98,44.43,-1025.88,1.28,2.87,0.03,
05/25/2025,21:20:19.50,21.48,39.55,-1016.60,1.59,4.57,1.65,
05/25/2025,21:20:19.52,17.58,58.59,-1015.14,2.16,3.20,-1.28,
05/25/2025,21:20:19.54,22.46,45.90,-1012.70,2.56,2.87,1.31,
05/25/2025,21:20:19.56,1.95,48.34,-1025.88,2.59,1.68,-1.55,
05/25/2025,21:20:19.58,31.74,55.18,-1019.04,5.24,1.83,-1.62,
05/25/2025,21:20:19.60,21.48,45.41,-1027.34,1.62,1.55,-0.40,
05/25/2025,21:20:19.62,19.04,51.27,-1022.46,1.34,1.98,2.87,
05/25/2025,21:20:19.64,24.90,52.73,-1016.11,2.77,2.87,0.34,
05/25/2025,21:20:19.66,10.74,57.13,-1025.39,1.19,4.15,0.76,
05/25/2025,21:20:19.68,27.34,50.78,-1025.39,2.68,0.09,-0.27,
05/25/2025,21:20:19.70,11.72,49.80,-1029.79,0.85,1.28,-1.98,
05/25/2025,21:20:19.72,18.55,46.88,-1013.67,1.74,3.32,-0.27,
05/25/2025,21:20:19.74,4.88,48.34,-1026.37,0.55,0.52,1.28,
05/25/2025,21:20:19.76,5.37,52.25,-1023.44,0.82,0.34,-2.26,
05/25/2025,21:20:19.78,6.84,52.73,-1023.93,1.22,3.08,-1.49,
05/25/2025,21:20:19.85,20.51,42.97,-1023.44,0.52,2.07,-0.61,
05/25/2025,21:20:19.87,22.46,45.90,-1021.97,0.67,4.39,-1.10,
05/25/2025,21:20:19.89,22.46,56.15,-1024.41,1.62,3.72,1.52,
05/25/2025,21:20:19.91,13.18,49.80,-1027.83,-1.68,4.51,-1.25,
05/25/2025,21:20:19.93,3.91,51.27,-1017.09,1.34,1.55,-0.88,
05/25/2025,21:20:19.95,12.21,55.18,-1023.93,2.13,1.04,-1.62,
05/25/2025,21:20:19.97,16.11,37.11,-1013.18,2.93,-1.34,-0.24,
05/25/2025,21:20:19.99,26.86,36.62,-1021.97,3.63,1.40,-2.47,
05/25/2025,21:20:20.01,10.74,45.41,-1017.09,1.68,1.80,-0.18,
05/25/2025,21:20:20.03,18.55,52.25,-1022.95,-0.12,0.98,0.64,
05/25/2025,21:20:20.05,12.70,42.48,-1031.25,0.76,3.72,0.06,
05/25/2025,21:20:20.07,11.23,47.36,-1024.41,2.04,2.32,-1.46,
05/25/2025,21:20:20.09,0.98,48.83,-1010.25,2.07,2.53,-0.64,
05/25/2025,21:20:20.11,19.04,48.34,-1024.90,0.46,1.31,-2.96,
05/25/2025,21:20:20.13,16.60,41.50,-1022.95,2.96,2.38,-2.16,
05/25/2025,21:20:20.15,18.55,52.25,-1021.00,2.53,-0.21,-3.26,
05/25/2025,21:20:20.17,11.72,47.85,-1023.93,0.24,2.38,-2.77,
05/25/2025,21:20:20.19,27.83,59.08,-1016.11,-0.40,2.93,0.40,
05/25/2025,21:20:20.21,21.97,63.96,-1018.55,-0.49,0.46,-2.35,
05/25/2025,21:20:20.23,9.77,54.20,-1021.48,0.79,2.26,-1.31,
05/25/2025,21:20:20.25,15.14,41.99,-1036.62,2.20,3.63,1.55,
05/25/2025,21:20:20.27,10.74,53.71,-1030.27,1.40,2.87,0.43,
05/25/2025,21:20:20.29,9.28,44.92,-1019.53,0.64,-1.04,-0.30,
05/25/2025,21:20:20.34,6.84,47.85,-1015.14,1.43,1.74,-2.32,
05/25/2025,21:20:20.36,19.53,65.92,-1028.32,2.65,2.23,1.19,
05/25/2025,21:20:20.38,0.49,52.25,-1031.74,2.01,0.88,-3.81,
05/25/2025,21:20:20.40,20.51,52.25,-1017.58,2.44,2.62,-0.30,
05/25/2025,21:20:20.42,12.70,44.43,-1026.37,1.10,1.86,-2.50,
05/25/2025,21:20:20.44,15.14,41.02,-1017.09,-0.58,1.98,-2.84,
05/25/2025,21:20:20.46,27.34,41.02,-1018.55,0.61,1.52,-0.40,
05/25/2025,21:20:20.48,26.86,49.32,-1018.07,2.04,1.34,-1.89,
05/25/2025,21:20:20.50,18.07,40.04,-1017.58,3.14,-0.03,-0.55,
05/25/2025,21:20:20.52,24.41,54.69,-1011.72,3.48,3.26,2.01,
05/25/2025,21:20:20.54,15.62,46.39,-1010.74,2.65,3.72,-3.29,
05/25/2025,21:20:20.56,12.21,46.88,-1002.44,0.88,-0.98,-0.95,
05/25/2025,21:20:20.58,10.74,46.39,-1019.04,2.01,4.21,-0.09,
05/25/2025,21:20:20.60,13.67,35.64,-1018.07,1.86,2.62,0.91,
05/25/2025,21:20:20.62,6.35,47.36,-1014.65,2.80,3.17,2.62,
05/25/2025,21:20:20.65,20.51,36.13,-1020.02,1.13,-0.21,-1.43,
05/25/2025,21:20:20.67,26.37,42.48,-1018.55,1.37,1.59,0.27,
05/25/2025,21:20:20.69,16.11,42.97,-1014.16,2.20,2.35,-1.01,
05/25/2025,21:20:20.71,12.70,58.11,-1026.86,3.38,1.34,1.34,
05/25/2025,21:20:20.73,29.30,71.78,-1020.51,0.49,3.66,-2.65,
05/25/2025,21:20:20.75,19.04,61.52,-1022.46,1.92,0.15,0.24,
05/25/2025,21:20:20.77,12.21,48.83,-1021.97,1.80,-0.85,-0.37,
05/25/2025,21:20:20.79,15.62,60.06,-1021.97,1.34,1.65,-2.23,
05/25/2025,21:20:20.81,6.84,50.78,-1013.67,3.02,1.65,1.01,
05/25/2025,21:20:20.85,14.16,47.36,-1014.65,-0.64,2.16,-2.50,
05/25/2025,21:20:20.87,8.30,54.69,-1011.23,4.15,0.27,2.50,
05/25/2025,21:20:20.90,0.98,48.83,-1019.04,2.53,4.18,2.38,
05/25/2025,21:20:20.92,21.00,61.52,-1019.04,1.68,1.71,-1.49,
05/25/2025,21:20:20.94,21.97,48.34,-1019.53,3.84,3.84,-0.85,
05/25/2025,21:20:20.96,6.84,47.85,-1022.95,-1.04,2.74,0.88,
05/25/2025,21:20:20.98,15.14,49.32,-1009.77,1.13,0.55,-0.24,
05/25/2025,21:20:21.00,10.25,47.85,-1010.74,2.16,2.59,2.32,
05/25/2025,21:20:21.02,18.55,48.83,-1026.37,0.58,2.10,2.87,
05/25/2025,21:20:21.04,22.95,53.71,-1020.51,2.80,4.42,0.52,
05/25/2025,21:20:21.06,13.67,46.88,-1017.58,-0.30,4.36,0.64,
05/25/2025,21:20:21.08,8.79,50.29,-1021.00,-0.61,2.41,1.71,
05/25/2025,21:20:21.10,18.55,51.27,-1011.72,0.82,4.51,-0.21,
05/25/2025,21:20:21.12,5.37,42.48,-1017.09,-0.21,0.95,-0.12,
05/25/2025,21:20:21.14,21.97,44.92,-1027.34,0.09,2.96,0.24,
05/25/2025,21:20:21.16,16.60,45.90,-1017.58,2.62,1.52,0.40,
05/25/2025,21:20:21.18,16.60,45.41,-1021.97,1.98,-0.09,-2.16,
05/25/2025,21:20:21.20,20.51,46.39,-1026.86,0.30,4.88,-3.29,
05/25/2025,21:20:21.22,19.53,47.36,-1023.44,1.83,2.32,-2.47,
05/25/2025,21:20:21.24,14.16,47.85,-1017.09,2.35,3.17,-2.32,
05/25/2025,21:20:21.26,7.81,45.41,-1019.04,1.25,0.88,0.18,
05/25/2025,21:20:21.28,17.09,39.06,-1019.53,1.68,3.05,0.40,
05/25/2025,21:20:21.30,12.21,47.85,-1019.04,2.26,1.77,-0.98,
05/25/2025,21:20:21.32,19.53,53.71,-1025.39,0.76,2.68,-2.59,
05/25/2025,21:20:21.37,9.28,44.43,-1029.30,2.56,1.89,-2.23,
05/25/2025,21:20:21.39,15.14,50.78,-1035.16,2.99,1.83,3.38,
05/25/2025,21:20:21.41,23.44,44.43,-1024.90,1.95,1.59,-2.23,
05/25/2025,21:20:21.43,4.39,51.27,-1010.25,2.56,2.16,-2.41,
05/25/2025,21:20:21.45,4.88,49.80,-1016.60,1.19,2.77,-0.06,
05/25/2025,21:20:21.47,10.25,47.36,-1021.48,2.29,2.29,1.22,
05/25/2025,21:20:21.49,23.93,54.20,-1033.20,1.31,1.49,2.53,
05/25/2025,21:20:21.51,10.74,54.20,-1019.53,0.91,1.25,0.58,
05/25/2025,21:20:21.53,13.67,56.64,-1023.44,2.01,1.10,-0.61,
05/25/2025,21:20:21.55,10.25,48.83,-1020.51,2.44,-0.85,2.26,
05/25/2025,21:20:21.57,17.09,52.25,-1025.88,1.55,2.90,-0.40,
05/25/2025,21:20:21.59,14.16,56.15,-1012.70,2.74,3.17,-1.65,
05/25/2025,21:20:21.61,19.53,51.27,-1031.25,1.01,3.26,0.79,
05/25/2025,21:20:21.63,17.09,51.27,-1031.74,0.61,1.37,0.06,
05/25/2025,21:20:21.65,13.18,52.25,-1019.53,3.20,2.96,1.34,
05/25/2025,21:20:21.67,15.14,50.29,-1009.77,1.46,1.95,-2.16,
05/25/2025,21:20:21.69,20.02,50.78,-1023.93,1.59,0.73,1.04,
05/25/2025,21:20:21.71,3.42,40.04,-1023.44,-0.30,2.68,-2.29,
05/25/2025,21:20:21.73,21.48,53.22,-1015.14,1.59,2.16,-3.54,
05/25/2025,21:20:21.75,8.79,55.66,-1020.02,0.98,-0.09,0.34,
05/25/2025,21:20:21.77,9.77,43.46,-1031.25,1.49,2.20,1.22,
05/25/2025,21:20:21.79,18.55,46.39,-1019.04,1.49,2.65,-0.15,
05/25/2025,21:20:21.81,19.53,56.15,-1015.14,1.55,2.23,0.67,
05/25/2025,21:20:21.83,6.84,48.83,-1009.77,0.34,2.10,-3.29,
05/25/2025,21:20:21.88,27.83,50.78,-1012.21,2.80,1.07,0.73,
05/25/2025,21:20:21.90,14.65,39.55,-1025.39,1.95,0.73,-2.29,
05/25/2025,21:20:21.92,13.67,53.71,-1021.48,0.79,4.94,-4.05,
05/25/2025,21:20:21.94,22.46,41.99,-1013.18,1.01,2.62,-0.21,
05/25/2025,21:20:21.96,28.32,50.78,-1025.88,2.71,3.11,1.62,
05/25/2025,21:20:21.98,26.86,60.55,-1021.97,0.18,1.92,-2.13,
05/25/2025,21:20:22.00,26.86,37.60,-1004.39,0.98,3.11,-2.71,
05/25/2025,21:20:22.02,12.21,30.76,-1019.04,1.68,2.16,0.18,
05/25/2025,21:20:22.04,14.65,56.64,-1010.25,1.49,2.74,0.79,
05/25/2025,21:20:22.06,21.48,55.66,-1026.86,-0.49,1.37,-1.40,
05/25/2025,21:20:22.08,23.93,44.92,-1017.58,1.40,2.90,0.73,
05/25/2025,21:20:22.10,17.58,46.88,-1020.02,1.40,2.50,-0.82,
05/25/2025,21:20:22.12,8.79,41.50,-1029.79,2.77,2.23,2.07,
05/25/2025,21:20:22.14,19.53,49.80,-1023.93,0.15,1.40,1.52,
05/25/2025,21:20:22.16,10.74,48.34,-1020.51,0.37,2.16,-2.29,
05/25/2025,21:20:22.18,10.25,44.92,-1017.09,1.71,1.95,-0.64,
05/25/2025,21:20:22.20,-3.91,43.46,-1010.25,0.88,2.87,-2.68,
05/25/2025,21:20:22.22,3.91,53.22,-1023.93,2.59,0.46,0.98,
05/25/2025,21:20:22.24,16.60,52.73,-1022.46,2.65,2.13,-2.59,
05/25/2025,21:20:22.26,13.67,50.29,-1024.41,2.59,3.51,-1.28,
05/25/2025,21:20:22.28,13.67,37.11,-1013.67,1.16,2.10,0.12,
05/25/2025,21:20:22.30,11.23,52.25,-1013.67,1.19,2.99,-2.65,
05/25/2025,21:20:22.32,21.97,35.16,-1025.39,0.34,-0.06,-2.26,
05/25/2025,21:20:22.34,14.16,44.92,-1014.16,1.59,3.35,-2.53,
05/25/2025,21:20:22.39,5.86,52.73,-1008.30,0.58,2.29,-0.58,
05/25/2025,21:20:22.41,6.84,51.76,-1012.70,0.30,1.55,-0.61,
05/25/2025,21:20:22.43,14.65,50.78,-1024.41,1.55,1.01,1.59,
05/25/2025,21:20:22.45,14.65,50.78,-1014.16,1.43,-0.52,-0.79,
05/25/2025,21:20:22.47,10.25,45.90,-1020.51,0.49,3.93,-1.68,
05/25/2025,21:20:22.49,12.70,41.50,-1015.14,1.13,4.18,0.34,
05/25/2025,21:20:22.51,17.09,61.04,-1024.41,0.79,2.04,-1.16,
05/25/2025,21:20:22.53,5.86,51.76,-1011.72,2.59,0.49,-0.70,
05/25/2025,21:20:22.55,13.67,56.15,-1024.41,1.49,1.52,-2.07,
05/25/2025,21:20:22.57,2.93,50.78,-1031.74,2.16,1.55,0.24,
05/25/2025,21:20:22.59,19.53,46.39,-1019.53,-0.30,-1.19,-1.04,
05/25/2025,21:20:22.61,19.53,56.64,-1022.95,0.82,2.93,-2.44,
05/25/2025,21:20:22.63,21.48,50.29,-1026.37,0.82,1.31,-1.55,
05/25/2025,21:20:22.65,13.18,56.64,-1024.90,3.84,1.28,-2.50,
05/25/2025,21:20:22.67,17.09,48.34,-1010.74,0.73,1.40,-0.49,
05/25/2025,21:20:22.69,12.70,39.55,-1021.48,1.77,0.85,-0.82,
05/25/2025,21:20:22.71,7.81,45.41,-1019.04,0.98,2.38,1.52,
05/25/2025,21:20:22.73,14.65,46.39,-1017.58,2.04,3.02,-0.27,
05/25/2025,21:20:22.75,13.67,58.59,-1015.62,-0.18,2.29,1.25,
05/25/2025,21:20:22.77,26.86,43.46,-1006.35,2.56,3.05,1.62,
05/25/2025,21:20:22.79,16.60,45.90,-1019.04,1.25,1.13,-2.87,
05/25/2025,21:20:22.81,1.95,47.85,-1014.65,2.90,6.46,1.43,
05/25/2025,21:20:22.83,15.14,46.88,-1028.81,0.61,-1.43,-3.32,
05/25/2025,21:20:22.85,22.46,47.85,-1019.04,2.90,3.72,0.49,
05/25/2025,21:20:22.90,17.58,39.55,-1028.81,0.09,2.10,-1.52,
05/25/2025,21:20:22.92,14.16,49.80,-1021.97,0.64,1.04,-1.25,
05/25/2025,21:20:22.94,13.18,51.76,-1027.34,-0.09,2.80,-1.65,
05/25/2025,21:20:22.96,17.09,63.48,-1015.62,1.49,0.37,0.27,
05/25/2025,21:20:22.98,10.74,48.83,-1009.28,1.22,2.74,-0.24,
05/25/2025,21:20:23.00,7.32,45.41,-1040.04,1.13,0.03,-1.74,
05/25/2025,21:20:23.02,12.70,56.64,-1015.14,3.26,0.34,1.37,
05/25/2025,21:20:23.04,20.51,48.34,-1021.00,1.95,-0.34,-2.23,
05/25/2025,21:20:23.06,13.67,46.88,-1018.55,1.62,1.86,0.43,
05/25/2025,21:20:23.08,17.09,44.92,-1017.58,1.89,3.45,-0.40,
05/25/2025,21:20:23.10,7.81,61.04,-1020.02,-0.76,1.59,-6.28,
05/25/2025,21:20:23.12,6.84,33.20,-1018.55,2.65,2.68,-0.88,
05/25/2025,21:20:23.14,7.32,53.71,-1012.70,0.98,2.47,-4.36,
05/25/2025,21:20:23.16,10.74,46.88,-1017.58,1.62,1.77,-1.92,
05/25/2025,21:20:23.18,11.23,47.85,-1017.58,1.92,1.19,2.80,
05/25/2025,21:20:23.20,8.79,55.66,-1010.74,0.52,3.11,1.59,
05/25/2025,21:20:23.22,23.44,46.39,-1027.34,1.98,2.65,2.77,
05/25/2025,21:20:23.24,4.88,56.64,-1010.25,3.35,-0.06,0.61,
05/25/2025,21:20:23.26,31.74,39.55,-1025.39,0.85,2.01,-1.55,
05/25/2025,21:20:23.28,21.00,60.06,-1028.32,1.62,1.13,0.18,
05/25/2025,21:20:23.30,17.58,45.90,-1038.57,2.16,1.43,0.27,
05/25/2025,21:20:23.32,13.18,52.73,-1025.88,0.27,2.74,3.96,
05/25/2025,21:20:23.34,4.39,47.85,-1023.93,1.16,3.11,-0.85,
05/25/2025,21:20:23.36,2.93,38.09,-1019.53,-0.09,2.35,-1.62,
05/25/2025,21:20:23.41,14.16,46.39,-1020.51,1.98,1.16,0.34,
05/25/2025,21:20:23.43,17.09,55.66,-1024.90,1.74,2.04,0.18,
05/25/2025,21:20:23.45,17.58,57.62,-1020.51,0.70,2.71,-1.98,
05/25/2025,21:20:23.47,13.18,48.83,-1020.02,1.19,2.53,-2.44,
05/25/2025,21:20:23.49,12.70,43.95,-1015.14,-0.06,2.87,-0.91,
05/25/2025,21:20:23.51,11.72,51.76,-1021.00,2.80,0.24,0.21,
05/25/2025,21:20:23.53,8.30,48.83,-1019.53,3.08,2.80,2.35,
05/25/2025,21:20:23.55,17.09,47.85,-1018.07,1.22,1.77,-0.52,
05/25/2025,21:20:23.57,11.23,42.48,-1023.44,-1.80,1.07,1.34,
05/25/2025,21:20:23.59,16.11,42.48,-1024.90,0.40,2.16,-0.49,
05/25/2025,21:20:23.61,23.93,60.06,-1016.60,0.67,1.07,1.40,
05/25/2025,21:20:23.63,14.16,45.41,-1020.51,1.43,3.17,-0.64,
05/25/2025,21:20:23.65,18.07,42.48,-1018.55,0.79,0.82,0.55,
05/25/2025,21:20:23.68,21.00,39.06,-1019.04,2.23,1.80,-1.16,
05/25/2025,21:20:23.70,10.74,58.59,-1028.32,2.23,0.34,0.27,
05/25/2025,21:20:23.72,24.90,52.73,-1018.07,-0.12,1.46,-0.27,
05/25/2025,21:20:23.74,14.16,54.69,-1025.88,-0.98,1.52,1.37,
05/25/2025,21:20:23.76,9.77,55.66,-1014.16,2.10,0.98,-1.80,
05/25/2025,21:20:23.78,14.65,51.27,-1019.53,-0.85,0.73,-1.07,
05/25/2025,21:20:23.80,16.60,42.48,-1003.42,2.26,-0.49,-2.87,
05/25/2025,21:20:23.82,6.84,53.22,-1014.16,2.20,2.71,3.14,
05/25/2025,21:20:23.84,11.23,39.06,-1023.44,3.17,1.59,0.12,
05/25/2025,21:20:23.86,12.21,56.15,-1022.95,-1.10,1.34,-0.70,
05/25/2025,21:20:23.88,20.02,51.76,-1014.16,2.41,3.26,1.01,
05/25/2025,21:20:23.93,22.95,59.57,-1020.51,2.01,-1.68,-2.26,
05/25/2025,21:20:23.95,22.95,46.88,-1023.44,0.85,-0.30,3.81,
05/25/2025,21:20:23.97,18.55,38.57,-1015.14,1.55,2.96,-0.52,
05/25/2025,21:20:23.99,5.37,44.92,-1022.46,-1.10,0.43,0.67,
05/25/2025,21:20:24.01,4.88,39.06,-1026.86,1.25,-0.95,-0.49,
05/25/2025,21:20:24.03,17.09,58.11,-1023.93,0.64,0.15,-2.77,
05/25/2025,21:20:24.05,5.86,63.96,-1019.04,3.23,1.10,-3.75,
05/25/2025,21:20:24.07,12.70,46.39,-1024.90,1.10,0.67,3.11,
05/25/2025,21:20:24.09,12.21,44.43,-1014.16,0.64,3.14,0.98,
05/25/2025,21:20:24.11,7.81,36.62,-1030.76,0.46,2.16,-1.65,
05/25/2025,21:20:24.13,6.84,46.39,-1021.97,3.60,1.59,0.49,
05/25/2025,21:20:24.15,18.55,50.78,-1017.58,3.41,-0.12,-0.03,
05/25/2025,21:20:24.17,10.74,52.73,-1017.58,2.99,0.88,0.79,
05/25/2025,21:20:24.19,15.62,58.59,-1033.69,3.17,1.59,-0.58,
05/25/2025,21:20:24.21,17.58,47.36,-1004.39,1.83,2.44,5.09,
05/25/2025,21:20:24.23,12.70,57.62,-1018.55,0.91,3.48,0.06,
05/25/2025,21:20:24.25,14.16,48.34,-1021.48,0.73,2.47,2.74,
05/25/2025,21:20:24.27,16.11,46.88,-1031.25,1.34,1.89,1.77,
05/25/2025,21:20:24.29,1.95,44.43,-1018.07,2.56,-0.03,1.62,
05/25/2025,21:20:24.31,22.46,52.25,-1017.58,2.59,2.56,-0.15,
05/25/2025,21:20:24.33,15.14,52.73,-1021.48,2.01,2.04,0.15,
05/25/2025,21:20:24.35,25.39,44.92,-1025.88,2.44,2.74,-1.01,
05/25/2025,21:20:24.37,21.48,42.48,-1015.14,1.04,2.35,-1.07,
05/25/2025,21:20:24.39,14.16,50.29,-1028.32,0.34,2.29,-3.02,
05/25/2025,21:20:24.45,24.90,44.43,-1023.93,0.98,2.44,1.89,
05/25/2025,21:20:24.47,11.23,46.88,-1017.58,1.43,2.77,-2.07,
05/25/2025,21:20:24.49,9.28,49.80,-1031.74,2.50,2.53,0.49,
05/25/2025,21:20:24.51,17.58,50.78,-1020.51,0.61,2.29,0.18,
05/25/2025,21:20:24.53,14.16,49.32,-1026.37,2.01,2.23,1.92,
05/25/2025,21:20:24.55,15.14,38.57,-1023.44,0.03,1.28,-0.88,
05/25/2025,21:20:24.57,21.00,61.04,-1022.95,1.59,1.77,0.79,
05/25/2025,21:20:24.59,3.42,44.92,-1011.72,-0.06,2.77,-2.90,
05/25/2025,21:20:24.61,26.86,47.36,-1017.58,2.44,1.62,-3.26,
05/25/2025,21:20:24.63,21.97,46.88,-1019.53,2.26,0.95,-1.19,
05/25/2025,21:20:24.65,9.28,47.85,-1025.88,1.77,2.56,-2.26,
05/25/2025,21:20:24.67,14.65,43.95,-1016.60,2.07,4.48,0.88,
05/25/2025,21:20:24.69,14.65,50.78,-1025.39,1.98,1.86,1.10,
05/25/2025,21:20:24.71,13.67,51.27,-1022.46,1.83,2.90,1.68,
05/25/2025,21:20:24.73,6.84,43.46,-1021.00,1.89,1.86,-0.09,
05/25/2025,21:20:24.75,10.74,45.90,-1019.53,1.86,0.85,2.07,
05/25/2025,21:20:24.77,11.23,41.50,-1011.23,1.83,2.16,1.68,
05/25/2025,21:20:24.79,3.42,48.83,-1030.27,4.51,-0.91,-0.49,
05/25/2025,21:20:24.81,10.25,47.85,-1028.81,1.55,0.79,-0.98,
05/25/2025,21:20:24.83,16.11,52.25,-1026.37,1.22,2.23,-1.49,
05/25/2025,21:20:24.85,9.77,38.09,-1011.72,1.65,0.52,-0.82,
05/25/2025,21:20:24.87,20.51,56.15,-1019.04,3.02,-0.24,-1.28,
05/25/2025,21:20:24.89,12.70,51.27,-1022.46,2.32,2.68,-0.34,
05/25/2025,21:20:24.91,14.16,41.50,-1019.53,3.11,0.95,0.95,
05/25/2025,21:20:24.96,5.37,56.64,-1024.41,0.98,1.13,-1.34,
05/25/2025,21:20:24.98,20.02,47.36,-1022.46,1.62,1.25,0.06,
05/25/2025,21:20:25.00,23.44,49.32,-1023.44,4.45,0.55,-0.37,
05/25/2025,21:20:25.02,20.02,52.25,-1018.07,0.61,2.56,-1.77,
05/25/2025,21:20:25.04,8.79,45.90,-1024.90,1.52,4.91,-2.07,
05/25/2025,21:20:25.06,18.07,42.97,-1020.51,2.56,3.32,-1.22,
05/25/2025,21:20:25.08,15.62,59.57,-1020.02,2.07,1.40,1.22,
05/25/2025,21:20:25.10,12.70,58.11,-1012.21,2.93,2.77,-1.37,
05/25/2025,21:20:25.12,18.55,40.53,-1020.51,0.06,1.28,0.88,
05/25/2025,21:20:25.14,18.55,46.39,-1027.34,2.62,1.28,0.49,
05/25/2025,21:20:25.16,5.86,62.01,-1008.79,-0.82,2.38,-1.80,
05/25/2025,21:20:25.18,10.74,50.78,-1006.35,0.24,2.59,-0.49,
05/25/2025,21:20:25.20,14.65,52.73,-1014.65,2.96,3.90,-0.73,
05/25/2025,21:20:25.22,15.62,36.13,-1020.02,0.85,2.16,-0.58,
05/25/2025,21:20:25.24,17.58,40.53,-1024.90,1.59,2.16,-1.83,
05/25/2025,21:20:25.26,3.42,46.39,-1018.07,2.10,3.35,0.21,
05/25/2025,21:20:25.28,14.65,42.48,-1028.32,2.16,3.26,-1.43,
05/25/2025,21:20:25.30,5.86,49.80,-1021.00,2.80,3.38,1.89,
05/25/2025,21:20:25.32,16.11,45.41,-1023.93,1.07,0.34,-0.55,
05/25/2025,21:20:25.34,9.77,50.78,-1024.41,-0.34,2.53,-2.90,
05/25/2025,21:20:25.36,-3.91,49.80,-1018.55,-0.30,1.13,-1.77,
05/25/2025,21:20:25.38,9.28,51.76,-1012.70,1.59,2.13,-0.85,
05/25/2025,21:20:25.40,3.42,44.43,-1019.04,0.76,4.24,6.07,
05/25/2025,21:20:25.42,12.21,33.20,-1023.93,0.98,1.52,2.44,
05/25/2025,21:20:25.47,15.14,53.22,-1023.44,2.56,2.07,-1.13,
05/25/2025,21:20:25.49,7.81,54.20,-1022.46,2.65,0.88,0.67,
05/25/2025,21:20:25.51,16.11,54.69,-1029.79,2.26,1.59,0.52,
05/25/2025,21:20:25.53,8.79,45.41,-1028.81,0.09,1.31,0.34,
05/25/2025,21:20:25.55,16.11,62.01,-1018.07,1.46,1.04,-2.26,
05/25/2025,21:20:25.57,23.93,53.22,-1018.55,1.37,1.10,-2.29,
05/25/2025,21:20:25.59,28.32,42.48,-1031.25,-0.43,2.35,1.74,
05/25/2025,21:20:25.61,14.65,47.85,-1022.46,2.32,1.92,-2.20,
05/25/2025,21:20:25.63,19.04,48.83,-1016.60,1.19,-0.18,-0.30,
05/25/2025,21:20:25.65,11.72,47.36,-1020.51,1.01,0.58,-0.85,
05/25/2025,21:20:25.67,12.21,44.43,-1030.27,1.89,1.52,-0.76,
05/25/2025,21:20:25.69,18.07,54.20,-1022.95,2.53,4.02,2.23,
05/25/2025,21:20:25.71,12.70,53.22,-1019.04,1.31,1.80,-0.85,
05/25/2025,21:20:25.73,18.07,54.69,-1018.55,-0.70,1.89,-0.46,
05/25/2025,21:20:25.75,12.70,39.06,-1022.46,2.90,0.40,0.09,
05/25/2025,21:20:25.77,11.23,43.46,-1024.41,0.76,2.74,-0.34,
05/25/2025,21:20:25.79,12.70,62.50,-1017.09,1.34,1.34,-0.03,
05/25/2025,21:20:25.81,24.41,53.71,-1020.02,2.20,0.40,-2.07,
05/25/2025,21:20:25.83,13.67,39.06,-1015.14,0.73,2.38,-2.56,
05/25/2025,21:20:25.85,18.55,48.83,-1018.07,-0.37,3.45,-4.18,
05/25/2025,21:20:25.87,12.21,52.25,-1025.39,1.49,0.09,-2.50,
05/25/2025,21:20:25.89,21.48,40.04,-1022.46,0.00,1.83,-1.25,
05/25/2025,21:20:25.91,13.18,45.41,-1019.04,1.49,1.95,0.61,
05/25/2025,21:20:25.93,4.88,52.73,-1028.32,1.19,1.98,3.14,
05/25/2025,21:20:25.98,13.67,29.30,-1025.88,0.18,1.65,1.07,
05/25/2025,21:20:26.00,11.23,46.88,-1019.53,0.79,3.48,0.03,
05/25/2025,21:20:26.02,6.84,55.18,-1022.46,1.43,1.28,0.91,
05/25/2025,21:20:26.04,17.58,51.27,-1026.86,2.35,-0.73,-0.03,
05/25/2025,21:20:26.06,20.02,48.34,-1019.53,0.40,0.03,-1.07,
05/25/2025,21:20:26.08,10.25,43.46,-1021.97,1.68,0.95,-1.65,
05/25/2025,21:20:26.10,16.11,41.50,-1010.25,0.98,1.92,0.40,
05/25/2025,21:20:26.12,18.07,56.64,-1020.51,0.46,2.71,-0.73,
05/25/2025,21:20:26.14,13.18,48.83,-1020.02,0.95,1.19,1.01,
05/25/2025,21:20:26.16,30.27,51.76,-1015.62,1.22,2.26,-4.82,
05/25/2025,21:20:26.18,5.37,51.27,-1009.77,1.43,-0.55,-1.37,
05/25/2025,21:20:26.20,14.16,59.57,-1019.53,0.82,1.04,1.19,
05/25/2025,21:20:26.22,25.88,43.46,-1025.39,3.45,2.65,0.61,
05/25/2025,21:20:26.24,7.32,53.71,-1017.09,1.43,0.98,0.70,
05/25/2025,21:20:26.26,14.65,59.57,-1025.88,1.65,3.48,-0.58,
05/25/2025,21:20:26.28,19.04,52.25,-1010.74,0.88,1.62,1.74,
05/25/2025,21:20:26.30,22.46,53.71,-1016.11,-0.12,2.10,-0.73,
05/25/2025,21:20:26.32,14.65,45.41,-1007.32,1.49,1.43,-2.38,
05/25/2025,21:20:26.34,9.77,40.53,-1022.46,2.47,1.52,1.10,
05/25/2025,21:20:26.36,19.04,43.95,-1022.46,2.04,1.01,2.04,
05/25/2025,21:20:26.38,9.28,36.13,-1025.88,0.98,3.96,0.61,
05/25/2025,21:20:26.40,12.70,37.60,-1019.04,0.34,1.83,-0.06,
05/25/2025,21:20:26.42,13.18,49.80,-1014.16,2.07,1.07,1.80,
05/25/2025,21:20:26.45,13.67,50.78,-1019.53,0.85,-0.06,0.70,
05/25/2025,21:20:26.49,16.60,52.25,-1020.02,0.52,1.34,-1.01,
05/25/2025,21:20:26.51,20.51,47.36,-1019.04,2.13,1.89,1.10,
05/25/2025,21:20:26.53,20.02,50.78,-1021.48,3.23,2.65,-0.79,
05/25/2025,21:20:26.55,16.11,61.04,-1023.93,0.40,1.55,0.67,
05/25/2025,21:20:26.57,20.51,50.78,-1030.27,0.06,1.83,2.16,
05/25/2025,21:20:26.59,12.21,58.11,-1024.90,2.53,1.62,1.13,
05/25/2025,21:20:26.62,19.53,40.53,-1022.46,1.71,2.44,4.51,
05/25/2025,21:20:26.64,17.58,43.46,-1022.46,2.62,2.68,1.59,
05/25/2025,21:20:26.66,13.18,53.22,-1025.88,3.66,1.16,0.00,
05/25/2025,21:20:26.68,10.74,49.32,-1007.81,0.70,1.34,-1.31,
05/25/2025,21:20:26.70,-5.37,49.32,-1020.02,0.15,4.24,-2.29,
05/25/2025,21:20:26.72,24.90,53.71,-1010.74,2.96,1.89,-0.55,
05/25/2025,21:20:26.74,14.65,56.15,-1014.16,1.16,1.83,-0.58,
05/25/2025,21:20:26.76,11.23,50.78,-1016.11,1.31,2.96,-1.62,
05/25/2025,21:20:26.78,14.65,55.66,-1021.97,2.56,3.87,1.71,
05/25/2025,21:20:26.80,10.25,42.97,-1026.37,-0.09,2.96,-1.59,
05/25/2025,21:20:26.82,11.72,53.22,-1015.14,0.15,2.53,1.07,
05/25/2025,21:20:26.84,8.79,48.83,-1026.37,0.67,1.68,-2.07,
05/25/2025,21:20:26.86,21.97,45.90,-1024.90,2.04,2.96,-2.13,
05/25/2025,21:20:26.88,-0.98,40.04,-1025.88,0.34,5.34,-0.76,
05/25/2025,21:20:26.90,10.25,33.20,-1020.51,2.56,3.87,-0.30,
05/25/2025,21:20:26.92,22.95,53.71,-1015.14,3.02,0.03,-3.48,
05/25/2025,21:20:26.94,15.14,42.97,-1019.53,0.67,1.77,0.98,
05/25/2025,21:20:26.96,7.81,47.36,-1017.58,0.95,2.44,2.32,
05/25/2025,21:20:27.01,18.55,44.92,-1034.67,0.58,0.09,2.26,
05/25/2025,21:20:27.03,11.72,41.99,-1018.55,1.77,1.98,-0.03,
05/25/2025,21:20:27.05,10.74,51.27,-1027.83,1.19,2.26,-1.95,
05/25/2025,21:20:27.07,17.09,40.04,-1014.16,0.18,2.04,-1.98,
05/25/2025,21:20:27.09,15.14,48.83,-1008.79,2.59,2.16,0.24,
05/25/2025,21:20:27.11,4.39,50.78,-1020.51,3.69,2.47,0.15,
05/25/2025,21:20:27.13,15.14,52.25,-1012.21,0.70,1.89,-2.20,
05/25/2025,21:20:27.15,14.16,42.97,-1032.71,2.50,2.59,-3.02,
05/25/2025,21:20:27.17,13.67,54.20,-1034.18,2.01,2.77,0.46,
05/25/2025,21:20:27.19,18.55,44.43,-1032.71,-0.15,0.46,-0.58,
05/25/2025,21:20:27.21,8.30,55.18,-1031.74,2.50,2.47,0.09,
05/25/2025,21:20:27.23,8.79,38.09,-1021.48,3.78,2.10,-0.98,
05/25/2025,21:20:27.25,24.41,46.88,-1024.90,0.18,0.37,1.98,
05/25/2025,21:20:27.27,5.86,46.88,-1029.30,1.71,0.46,-0.95,
05/25/2025,21:20:27.29,4.88,50.29,-1019.53,-0.67,0.91,0.95,
05/25/2025,21:20:27.31,0.98,47.85,-1028.32,1.01,2.59,-0.46,
05/25/2025,21:20:27.33,7.81,52.25,-1017.09,1.37,3.08,-2.77,
05/25/2025,21:20:27.35,18.55,50.78,-1035.16,2.53,3.05,0.70,
05/25/2025,21:20:27.37,17.58,50.29,-1027.83,0.82,2.04,0.73,
05/25/2025,21:20:27.39,13.67,58.11,-1028.81,0.85,-0.34,3.48,
05/25/2025,21:20:27.41,22.46,49.80,-1017.09,3.32,0.73,-0.52,
05/25/2025,21:20:27.43,10.25,50.78,-1024.41,2.20,1.80,-1.80,
05/25/2025,21:20:27.45,13.67,43.46,-1018.07,1.40,2.32,-2.29,
05/25/2025,21:20:27.47,14.16,51.27,-1020.02,0.21,0.18,0.06,
05/25/2025,21:20:27.52,15.14,42.48,-1022.95,1.43,3.41,-3.20,
05/25/2025,21:20:27.54,21.00,62.01,-1015.62,3.41,0.55,-1.52,
05/25/2025,21:20:27.56,26.86,52.73,-1013.67,3.08,3.35,1.43,
05/25/2025,21:20:27.58,21.00,46.39,-1021.00,1.92,0.73,0.09,
05/25/2025,21:20:27.60,3.91,43.95,-1018.07,1.34,2.68,-3.90,
05/25/2025,21:20:27.62,6.35,46.39,-1007.81,-0.40,1.65,0.15,
05/25/2025,21:20:27.64,8.30,41.50,-1019.53,0.76,1.65,-2.04,
05/25/2025,21:20:27.66,6.84,53.71,-1021.97,2.62,0.98,-2.26,
05/25/2025,21:20:27.68,17.58,52.25,-1013.67,1.28,0.85,-1.62,
05/25/2025,21:20:27.70,22.46,48.83,-1033.69,3.02,2.10,-2.07,
05/25/2025,21:20:27.72,8.79,47.85,-1022.46,0.73,2.44,0.40,
05/25/2025,21:20:27.74,15.14,51.76,-1018.07,0.98,1.10,-0.79,
05/25/2025,21:20:27.76,16.11,41.02,-1014.65,1.22,-1.01,1.74,
05/25/2025,21:20:27.78,13.67,47.85,-1014.16,-1.49,1.28,-1.01,
05/25/2025,21:20:27.80,6.84,50.29,-1023.93,1.01,0.09,-1.25,
05/25/2025,21:20:27.82,14.16,36.62,-1021.48,2.84,0.37,3.57,
05/25/2025,21:20:27.84,14.65,50.78,-1015.62,2.10,1.55,-1.83,
05/25/2025,21:20:27.86,19.04,54.69,-1022.95,0.52,1.40,-1.55,
05/25/2025,21:20:27.88,7.32,47.36,-1024.41,-0.12,3.14,-2.07,
05/25/2025,21:20:27.90,8.79,45.41,-1022.46,0.21,2.13,1.65,
05/25/2025,21:20:27.92,16.11,34.67,-1018.07,0.95,2.07,-0.95,
05/25/2025,21:20:27.94,10.25,36.62,-1021.00,2.29,2.96,-2.01,
05/25/2025,21:20:27.96,22.46,57.13,-1021.48,2.26,2.71,-2.35,
05/25/2025,21:20:27.98,10.25,45.41,-1012.21,2.04,2.93,-0.21,
05/25/2025,21:20:28.03,9.77,48.83,-1017.58,-0.34,-0.24,0.27,
05/25/2025,21:20:28.05,3.91,41.99,-1031.25,3.99,1.40,-0.67,
05/25/2025,21:20:28.07,19.04,43.46,-1022.46,1.98,0.98,3.38,
05/25/2025,21:20:28.09,13.67,47.85,-1016.60,1.98,2.41,-0.98,
05/25/2025,21:20:28.11,29.30,40.53,-1020.02,0.64,0.18,-0.85,
05/25/2025,21:20:28.13,3.42,43.95,-1016.60,0.58,3.45,-0.73,
05/25/2025,21:20:28.15,12.70,52.25,-1026.86,1.19,1.16,0.40,
05/25/2025,21:20:28.17,17.09,47.85,-1015.62,-0.73,3.23,-4.63,
05/25/2025,21:20:28.19,6.84,61.04,-1022.95,1.34,-1.04,1.07,
05/25/2025,21:20:28.21,2.93,56.15,-1013.67,2.44,3.66,-0.88,
05/25/2025,21:20:28.23,4.88,57.13,-1021.97,0.00,2.65,-3.08,
05/25/2025,21:20:28.25,17.58,52.73,-1031.25,3.14,0.79,-0.06,
05/25/2025,21:20:28.27,4.88,50.29,-1010.74,1.46,-0.21,1.40,
05/25/2025,21:20:28.29,9.28,30.27,-1024.90,-1.19,2.93,-0.06,
05/25/2025,21:20:28.31,23.93,51.27,-1015.14,3.41,3.96,-4.18,
05/25/2025,21:20:28.33,21.00,40.53,-1020.51,2.07,2.59,0.82,
05/25/2025,21:20:28.35,10.25,60.55,-1014.65,2.13,0.73,-1.71,
05/25/2025,21:20:28.37,13.67,46.39,-1029.79,0.76,2.44,-2.59,
05/25/2025,21:20:28.39,9.77,50.78,-1024.90,3.60,2.10,-0.79,
05/25/2025,21:20:28.41,20.02,30.76,-1013.18,0.82,2.50,0.46,
05/25/2025,21:20:28.43,21.48,53.22,-1018.07,0.98,2.65,2.38,
05/25/2025,21:20:28.45,33.20,50.29,-1019.53,0.37,2.10,-1.52,
05/25/2025,21:20:28.47,16.60,39.06,-1022.95,1.01,2.38,-0.27,
05/25/2025,21:20:28.49,11.72,53.22,-1025.39,0.73,3.51,-2.26,
05/25/2025,21:20:28.55,28.32,62.50,-1020.51,0.46,1.68,1.28,
05/25/2025,21:20:28.57,24.41,45.90,-1024.41,1.89,2.84,2.90,
05/25/2025,21:20:28.59,22.95,40.04,-1012.21,0.79,2.71,1.98,
05/25/2025,21:20:28.61,5.37,47.36,-1017.09,2.77,3.05,-0.79,
05/25/2025,21:20:28.63,21.97,50.29,-1010.25,-0.24,1.62,-1.40,
05/25/2025,21:20:28.65,15.14,51.27,-1017.09,1.71,4.27,-2.20,
05/25/2025,21:20:28.67,18.07,62.01,-1022.46,0.09,1.31,-1.52,
05/25/2025,21:20:28.69,21.48,55.18,-1026.86,1.43,0.37,0.46,
05/25/2025,21:20:28.71,3.91,47.36,-1024.90,0.67,1.43,-0.30,
05/25/2025,21:20:28.73,16.60,38.57,-1025.88,0.43,1.62,-0.30,
05/25/2025,21:20:28.75,24.90,47.85,-1016.11,2.07,2.07,0.37,
05/25/2025,21:20:28.77,12.21,62.01,-1014.16,1.74,2.01,1.83,
05/25/2025,21:20:28.79,22.95,50.29,-1023.44,1.65,2.96,-1.83,
05/25/2025,21:20:28.81,4.88,45.90,-1017.09,1.28,0.43,2.56,
05/25/2025,21:20:28.83,23.44,44.92,-1018.07,1.80,0.55,-1.65,
05/25/2025,21:20:28.85,17.09,49.80,-1022.46,1.37,3.69,-1.46,
05/25/2025,21:20:28.87,14.16,44.43,-1009.77,1.19,2.13,-1.92,
05/25/2025,21:20:28.89,15.14,44.43,-1030.76,0.21,2.50,-2.93,
05/25/2025,21:20:28.91,11.23,53.22,-1016.11,2.04,2.74,4.21,
05/25/2025,21:20:28.93,14.16,59.08,-1030.76,1.65,0.58,-1.92,
05/25/2025,21:20:28.95,11.23,50.78,-1016.60,2.16,1.43,-0.95,
05/25/2025,21:20:28.97,16.11,41.99,-1012.21,2.41,2.65,-1.43,
05/25/2025,21:20:28.99,21.00,58.11,-1028.32,0.88,0.15,4.70,
05/25/2025,21:20:29.01,21.48,42.97,-1012.70,1.16,2.84,-1.71,
05/25/2025,21:20:29.06,6.35,49.32,-1019.04,0.49,1.25,-0.70,
05/25/2025,21:20:29.08,14.65,48.83,-1021.48,0.70,-0.46,1.83,
05/25/2025,21:20:29.10,9.28,54.69,-1019.53,1.77,2.01,-1.92,
05/25/2025,21:20:29.12,24.41,48.34,-1023.44,3.69,1.43,-0.46,
05/25/2025,21:20:29.14,11.23,43.95,-1019.04,-0.76,1.77,2.35,
05/25/2025,21:20:29.16,2.93,41.50,-1025.88,1.04,-1.40,-0.67,
05/25/2025,21:20:29.18,4.88,53.71,-1014.16,0.76,1.04,0.43,
05/25/2025,21:20:29.20,6.35,36.62,-1022.46,0.00,1.86,-1.31,
05/25/2025,21:20:29.22,10.74,44.92,-1021.48,1.46,1.86,-1.74,
05/25/2025,21:20:29.25,3.91,44.43,-1021.48,2.47,2.29,2.96,
05/25/2025,21:20:29.27,17.58,53.22,-1023.44,1.31,0.79,-1.77,
05/25/2025,21:20:29.29,11.72,44.92,-1017.58,-1.07,2.53,0.67,
05/25/2025,21:20:29.31,6.35,50.29,-1031.74,0.98,2.16,0.00,
05/25/2025,21:20:29.33,15.62,41.99,-1023.93,-0.06,2.65,1.25,
05/25/2025,21:20:29.35,30.27,46.88,-1030.27,1.71,0.73,-1.55,
05/25/2025,21:20:29.37,15.62,39.55,-1001.95,0.46,1.62,-0.03,
05/25/2025,21:20:29.39,19.53,44.92,-1027.83,1.65,1.52,-1.19,
05/25/2025,21:20:29.41,14.16,39.55,-1028.81,1.04,3.93,-1.40,
05/25/2025,21:20:29.43,16.60,47.85,-1024.41,1.92,1.31,-1.16,
05/25/2025,21:20:29.45,5.86,48.83,-1020.51,3.17,0.37,0.34,
05/25/2025,21:20:29.47,6.84,51.27,-1016.11,1.71,2.13,-3.63,
05/25/2025,21:20:29.49,16.11,53.22,-1026.86,3.05,3.05,0.30,
05/25/2025,21:20:29.51,4.88,47.85,-1022.46,1.83,2.93,2.35,
05/25/2025,21:20:29.53,18.55,47.85,-1021.00,1.65,0.43,-0.85,
05/25/2025,21:20:29.58,12.70,41.99,-1026.37,2.71,1.40,2.23,
05/25/2025,21:20:29.60,6.35,46.39,-1018.55,0.67,1.62,0.03,
05/25/2025,21:20:29.62,22.95,43.46,-1017.09,0.52,3.20,-0.46,
05/25/2025,21:20:29.64,18.55,49.32,-1019.53,3.38,3.14,0.91,
05/25/2025,21:20:29.66,18.55,49.80,-1010.74,1.92,1.59,-2.16,
05/25/2025,21:20:29.68,14.16,41.02,-1029.79,1.43,2.74,-1.07,
05/25/2025,21:20:29.70,15.14,41.02,-1009.77,2.23,0.15,-0.64,
05/25/2025,21:20:29.72,13.18,55.18,-1023.44,1.77,3.66,-2.84,
05/25/2025,21:20:29.74,14.16,40.53,-1024.41,0.49,1.65,-2.65,
05/25/2025,21:20:29.76,14.16,49.80,-1030.27,1.86,1.80,1.86,
05/25/2025,21:20:29.78,5.37,51.27,-1024.90,0.21,1.28,-0.09,
05/25/2025,21:20:29.80,4.88,48.34,-1029.30,1.22,1.71,-1.16,
05/25/2025,21:20:29.82,4.39,58.59,-1017.58,4.36,1.01,-3.75,
05/25/2025,21:20:29.84,23.44,44.92,-1022.46,1.59,3.32,-1.71,
05/25/2025,21:20:29.86,29.30,57.62,-1014.65,0.52,3.51,-1.52,
05/25/2025,21:20:29.88,14.65,48.83,-1015.14,1.28,2.62,1.19,
05/25/2025,21:20:29.90,25.39,48.34,-1014.16,0.61,1.37,0.67,
05/25/2025,21:20:29.92,19.53,45.41,-1026.86,-1.04,1.77,0.52,
05/25/2025,21:20:29.94,11.72,40.04,-1025.39,2.01,2.38,1.34,
05/25/2025,21:20:29.96,19.53,58.11,-1019.53,4.21,2.41,-1.74,
05/25/2025,21:20:29.98,9.77,37.60,-1021.48,1.55,3.26,-2.04,
05/25/2025,21:20:30.00,9.28,44.92,-1000.98,1.28,3.54,3.05,
05/25/2025,21:20:30.02,18.07,39.06,-1041.50,3.17,2.32,1.80,
05/25/2025,21:20:30.04,-3.42,56.15,-1023.44,2.20,1.19,-1.89,
05/25/2025,21:20:30.09,21.00,45.90,-1030.76,2.01,1.92,1.74,
05/25/2025,21:20:30.11,21.48,45.41,-1022.95,2.04,2.35,-2.68,
05/25/2025,21:20:30.13,0.49,43.95,-1016.60,1.71,0.55,-0.82,
05/25/2025,21:20:30.15,7.81,41.02,-1025.88,0.49,2.47,-0.82,
05/25/2025,21:20:30.17,14.16,36.62,-1026.86,-0.34,-0.06,3.78,
05/25/2025,21:20:30.19,34.67,36.62,-917.97,2.53,-3.81,1.37,
05/25/2025,21:20:30.21,24.90,57.13,-970.21,3.32,2.90,-0.70,
05/25/2025,21:20:30.23,22.95,39.06,-993.16,0.67,4.63,-0.34,
05/25/2025,21:20:30.25,11.23,48.83,-1041.50,0.64,2.01,-0.61,
05/25/2025,21:20:30.27,16.11,50.29,-1028.32,1.52,4.48,0.58,
05/25/2025,21:20:30.29,7.32,58.11,-998.05,1.80,0.95,-2.96,
05/25/2025,21:20:30.31,2.93,34.67,-1021.00,0.34,0.76,0.12,
05/25/2025,21:20:30.33,0.98,47.85,-1022.46,0.98,1.16,1.98,
05/25/2025,21:20:30.35,4.39,56.64,-1021.97,3.48,0.79,-0.21,
05/25/2025,21:20:30.37,19.04,48.83,-1015.14,1.22,2.99,-1.49,
05/25/2025,21:20:30.39,8.79,38.09,-1003.42,0.82,1.25,1.25,
05/25/2025,21:20:30.41,13.18,57.62,-1030.27,1.92,1.43,-4.33,
05/25/2025,21:20:30.43,6.35,30.76,-1012.21,1.65,1.46,-0.27,
05/25/2025,21:20:30.45,11.72,52.25,-1011.72,1.71,3.29,-2.26,
05/25/2025,21:20:30.47,13.67,43.46,-1027.34,2.93,1.25,-0.76,
05/25/2025,21:20:30.49,2.44,42.48,-1014.65,1.07,1.19,-0.49,
05/25/2025,21:20:30.51,12.21,41.99,-1023.93,2.56,-0.27,-2.96,
05/25/2025,21:20:30.53,13.67,44.92,-1010.25,2.32,2.68,-0.88,
05/25/2025,21:20:30.55,34.67,52.73,-1033.69,1.25,4.70,0.06,
05/25/2025,21:20:30.60,7.32,60.06,-1021.48,2.32,2.90,-1.31,
05/25/2025,21:20:30.62,27.34,43.46,-1006.84,2.56,2.41,-2.71,
05/25/2025,21:20:30.64,12.21,54.20,-1025.88,0.58,1.98,-1.16,
05/25/2025,21:20:30.66,12.70,38.09,-1027.34,2.56,2.07,-2.44,
05/25/2025,21:20:30.68,17.09,54.20,-1018.07,2.38,2.68,0.21,
05/25/2025,21:20:30.70,28.32,50.29,-1025.88,0.58,2.38,-2.32,
05/25/2025,21:20:30.72,14.65,47.85,-1017.09,1.37,1.22,-0.43,
05/25/2025,21:20:30.74,21.48,41.02,-1021.00,2.07,3.02,-0.82,
05/25/2025,21:20:30.76,19.53,58.11,-1021.48,0.27,1.31,0.91,
05/25/2025,21:20:30.78,12.21,56.15,-1024.90,0.82,2.41,-1.28,
05/25/2025,21:20:30.80,25.39,44.43,-1028.32,0.98,0.79,-0.09,
05/25/2025,21:20:30.82,4.88,41.99,-1010.74,0.85,2.65,-1.01,
05/25/2025,21:20:30.84,18.07,52.25,-1017.09,0.95,2.04,-1.22,
05/25/2025,21:20:30.86,23.44,40.53,-1022.46,0.70,2.53,0.40,
05/25/2025,21:20:30.88,12.70,49.80,-1023.93,2.65,1.80,0.73,
05/25/2025,21:20:30.90,12.70,49.80,-1020.02,2.47,1.19,-2.01,
05/25/2025,21:20:30.92,20.02,53.71,-1028.81,0.00,0.95,-0.34,
05/25/2025,21:20:30.94,11.23,51.27,-1012.70,0.64,1.95,-0.30,
05/25/2025,21:20:30.96,7.81,43.46,-1024.41,-0.34,3.57,-1.74,
05/25/2025,21:20:30.98,14.16,53.22,-1009.28,1.43,0.70,-3.17,
05/25/2025,21:20:31.00,27.83,56.64,-1023.44,1.28,2.41,3.60,
05/25/2025,21:20:31.02,10.25,46.88,-1020.02,2.29,0.95,-1.40,
05/25/2025,21:20:31.04,17.09,50.78,-1016.60,2.99,0.79,-3.99,
05/25/2025,21:20:31.06,23.44,43.95,-1031.74,2.71,0.03,-2.32,
05/25/2025,21:20:31.13,21.48,49.80,-1024.90,3.72,1.31,0.49,
05/25/2025,21:20:31.15,7.32,41.02,-1012.21,2.32,1.74,-2.07,
05/25/2025,21:20:31.17,25.39,49.32,-1019.53,0.91,3.48,-1.98,
05/25/2025,21:20:31.19,6.84,48.34,-1004.88,0.18,1.62,0.12,
05/25/2025,21:20:31.21,-1.46,50.78,-1013.67,0.76,2.65,2.04,
05/25/2025,21:20:31.23,0.00,43.95,-1022.95,2.01,3.02,-1.46,
05/25/2025,21:20:31.25,13.18,37.11,-1025.39,1.83,3.02,-3.84,
05/25/2025,21:20:31.27,9.28,52.25,-1014.65,1.55,1.25,-3.32,
05/25/2025,21:20:31.29,14.16,43.46,-1031.25,3.11,2.84,0.67,
05/25/2025,21:20:31.31,11.72,48.83,-1017.58,1.95,1.92,-0.43,
05/25/2025,21:20:31.33,14.16,42.48,-1023.93,2.29,1.46,-1.07,
05/25/2025,21:20:31.35,12.21,50.29,-1025.88,1.31,2.93,1.59,
05/25/2025,21:20:31.37,6.84,51.76,-1013.67,0.52,1.46,-0.95,
05/25/2025,21:20:31.39,21.48,49.32,-1022.95,1.04,-0.79,-1.22,
05/25/2025,21:20:31.41,10.74,45.41,-1020.51,0.85,0.03,-3.84,
05/25/2025,21:20:31.43,9.28,48.34,-1021.97,1.43,1.52,0.15,
05/25/2025,21:20:31.45,22.46,41.02,-1029.30,3.14,2.07,-0.91,
05/25/2025,21:20:31.47,24.90,45.90,-1022.46,2.13,3.51,-1.83,
05/25/2025,21:20:31.49,14.16,42.97,-1012.70,2.10,2.50,-1.98,
05/25/2025,21:20:31.51,18.07,39.06,-1030.27,2.80,2.41,-2.23,
05/25/2025,21:20:31.53,5.37,39.06,-1026.86,1.65,1.71,-1.34,
05/25/2025,21:20:31.55,19.04,54.20,-1026.37,1.55,2.62,-1.25,
05/25/2025,21:20:31.57,18.07,45.41,-1012.21,0.27,3.29,-3.14,
05/25/2025,21:20:31.62,9.28,39.06,-1021.48,-1.49,0.70,-0.76,
05/25/2025,21:20:31.64,11.23,58.59,-1014.16,0.67,1.62,-1.37,
05/25/2025,21:20:31.66,17.58,42.97,-1028.81,2.26,1.86,-1.37,
05/25/2025,21:20:31.68,14.65,59.57,-1018.55,0.88,1.01,-2.99,
05/25/2025,21:20:31.70,20.02,42.97,-1018.07,0.00,3.14,1.83,
05/25/2025,21:20:31.72,14.65,51.76,-1024.41,1.74,2.16,-0.70,
05/25/2025,21:20:31.74,19.53,40.04,-1019.53,1.52,4.02,-1.77,
05/25/2025,21:20:31.76,14.65,49.32,-1023.93,-0.18,1.28,-3.20,
05/25/2025,21:20:31.78,7.81,54.69,-1021.48,1.16,1.25,2.50,
05/25/2025,21:20:31.80,-6.35,67.87,-1015.62,2.96,1.49,0.67,
05/25/2025,21:20:31.82,6.35,60.55,-1036.13,1.80,1.83,-1.34,
05/25/2025,21:20:31.84,9.77,56.15,-1019.53,2.38,0.61,1.74,
05/25/2025,21:20:31.86,13.67,51.76,-1018.07,1.19,1.49,0.79,
05/25/2025,21:20:31.88,12.21,49.32,-1005.86,1.13,1.49,-0.76,
05/25/2025,21:20:31.90,17.58,44.92,-1030.27,1.16,1.34,-2.84,
05/25/2025,21:20:31.92,18.07,41.02,-1021.97,-1.01,2.41,-2.29,
05/25/2025,21:20:31.94,8.79,54.20,-1016.60,0.98,0.76,0.03,
05/25/2025,21:20:31.96,9.28,40.04,-1026.86,2.53,2.07,0.40,
05/25/2025,21:20:31.98,8.30,58.11,-1008.79,1.31,1.74,0.24,
05/25/2025,21:20:32.00,15.14,47.85,-1021.97,2.62,3.84,-1.71,
05/25/2025,21:20:32.02,28.81,53.71,-1018.07,0.67,2.93,0.52,
05/25/2025,21:20:32.04,25.88,40.53,-1025.88,1.13,1.80,-0.30,
05/25/2025,21:20:32.06,9.77,40.04,-1022.46,1.01,3.69,-3.11,
05/25/2025,21:20:32.08,14.16,43.46,-1022.95,2.87,1.98,1.65,
05/25/2025,21:20:32.14,-0.49,63.48,-1013.67,1.25,1.68,-1.25,
05/25/2025,21:20:32.16,19.53,48.83,-1016.11,3.23,-0.21,0.79,
05/25/2025,21:20:32.18,18.07,56.64,-1013.18,1.98,-0.12,-0.24,
05/25/2025,21:20:32.20,15.62,42.97,-1026.37,3.05,2.53,0.58,
05/25/2025,21:20:32.22,25.88,44.43,-1025.39,1.92,1.13,-1.40,
05/25/2025,21:20:32.24,12.70,45.41,-1008.30,1.71,1.80,-1.31,
05/25/2025,21:20:32.26,6.84,44.92,-1023.93,1.62,4.27,-2.41,
05/25/2025,21:20:32.28,4.88,39.55,-1021.48,2.87,0.67,-2.35,
05/25/2025,21:20:32.30,7.81,52.73,-1000.49,1.80,2.32,-3.66,
05/25/2025,21:20:32.32,8.30,50.78,-1024.90,1.43,2.90,0.24,
05/25/2025,21:20:32.34,4.39,52.25,-1013.67,1.89,0.88,2.20,
05/25/2025,21:20:32.36,17.09,46.39,-1011.23,1.95,3.20,0.27,
05/25/2025,21:20:32.38,3.91,55.66,-1026.86,1.16,1.68,0.58,
05/25/2025,21:20:32.40,6.84,50.29,-1020.02,0.58,1.46,-1.43,
05/25/2025,21:20:32.42,14.65,56.64,-1025.88,2.26,1.77,-4.45,
05/25/2025,21:20:32.44,14.65,38.57,-1021.48,2.59,0.06,-1.59,
05/25/2025,21:20:32.46,27.34,38.57,-1016.60,2.62,4.27,-1.55,
05/25/2025,21:20:32.48,21.48,37.11,-1009.77,0.27,1.83,0.37,
05/25/2025,21:20:32.50,29.30,48.83,-1014.65,2.80,1.77,2.04,
05/25/2025,21:20:32.52,11.72,41.02,-1023.44,0.15,3.05,-2.53,
05/25/2025,21:20:32.54,15.62,46.39,-1021.00,1.01,0.27,-0.67,
05/25/2025,21:20:32.56,7.32,53.71,-1020.51,0.30,3.87,2.01,
05/25/2025,21:20:32.58,19.04,55.66,-1021.97,2.20,0.79,-0.34,
05/25/2025,21:20:32.60,16.11,45.41,-1020.51,0.82,2.16,1.43,
05/25/2025,21:20:32.65,12.70,35.16,-1035.64,0.15,3.41,1.10,
05/25/2025,21:20:32.67,21.00,36.13,-1025.39,1.62,2.53,-3.51,
05/25/2025,21:20:32.69,19.04,30.76,-1021.97,0.49,1.74,-1.71,
05/25/2025,21:20:32.71,17.09,40.04,-1018.07,2.20,-0.88,-3.05,
05/25/2025,21:20:32.73,22.95,50.29,-1020.02,0.30,1.13,1.28,
05/25/2025,21:20:32.75,14.16,44.43,-1022.95,0.06,1.22,0.52,
05/25/2025,21:20:32.77,19.53,46.39,-1030.76,1.16,4.54,-1.68,
05/25/2025,21:20:32.79,26.37,49.32,-1014.16,3.29,1.62,2.93,
05/25/2025,21:20:32.81,19.04,47.36,-1017.58,2.93,3.08,1.62,
05/25/2025,21:20:32.84,19.04,48.83,-1019.53,1.28,2.16,-0.27,
05/25/2025,21:20:32.86,18.07,38.09,-1021.00,3.93,1.77,0.70,
05/25/2025,21:20:32.88,14.65,38.57,-1025.39,1.59,1.49,0.24,
05/25/2025,21:20:32.90,12.21,44.92,-1018.55,2.07,1.46,1.65,
05/25/2025,21:20:32.92,16.60,49.32,-1014.16,1.98,1.92,0.40,
05/25/2025,21:20:32.94,17.09,56.64,-1023.44,0.09,1.34,-0.79,
05/25/2025,21:20:32.96,19.53,41.02,-1021.00,3.14,2.35,-0.37,
05/25/2025,21:20:32.98,12.21,41.50,-1025.88,1.28,0.34,-1.86,
05/25/2025,21:20:33.00,2.44,39.55,-1022.95,0.95,4.88,-1.25,
05/25/2025,21:20:33.02,2.93,50.29,-1018.07,1.86,2.13,-0.27,
05/25/2025,21:20:33.04,10.25,39.55,-1020.02,1.34,2.13,-1.68,
05/25/2025,21:20:33.06,23.93,38.57,-1034.18,0.46,3.08,3.26,
05/25/2025,21:20:33.08,3.42,35.64,-1015.62,1.92,2.96,0.55,
05/25/2025,21:20:33.10,16.60,41.99,-1022.95,2.77,1.28,3.20,
05/25/2025,21:20:33.12,11.72,54.69,-1016.60,1.65,3.26,-1.68,
05/25/2025,21:20:33.17,9.28,55.18,-1019.53,2.59,3.08,0.18,
05/25/2025,21:20:33.19,4.88,49.80,-1020.51,2.07,3.20,-2.87,
05/25/2025,21:20:33.21,18.55,57.13,-1021.48,-0.09,2.04,0.21,
05/25/2025,21:20:33.23,9.77,53.71,-1020.51,1.62,4.70,-0.98,
05/25/2025,21:20:33.25,5.86,38.57,-1011.23,1.10,0.55,-0.64,
05/25/2025,21:20:33.27,21.48,29.30,-1019.53,3.17,1.74,4.15,
05/25/2025,21:20:33.29,4.88,33.20,-1016.60,2.41,2.44,-0.43,
05/25/2025,21:20:33.31,21.48,42.48,-1020.51,1.55,2.74,-0.15,
05/25/2025,21:20:33.33,19.04,43.46,-1022.95,1.92,1.95,-0.98,
05/25/2025,21:20:33.35,13.67,56.64,-1014.65,0.49,3.23,-1.49,
05/25/2025,21:20:33.37,10.74,61.04,-1018.07,0.70,-0.55,-0.49,
05/25/2025,21:20:33.39,8.30,54.69,-1016.11,1.49,3.75,-2.56,
05/25/2025,21:20:33.41,17.09,68.36,-1023.44,2.04,3.60,0.34,
05/25/2025,21:20:33.43,17.09,42.48,-1018.07,2.44,3.08,-2.68,
05/25/2025,21:20:33.45,8.30,46.88,-1017.58,1.65,1.10,0.70,
05/25/2025,21:20:33.47,2.93,39.55,-1015.62,2.10,3.78,3.32,
05/25/2025,21:20:33.49,14.16,44.92,-1024.41,0.09,2.93,-1.22,
05/25/2025,21:20:33.51,23.93,49.32,-1017.58,0.67,1.65,-2.04,
05/25/2025,21:20:33.53,26.86,47.36,-1015.62,0.00,3.63,-2.59,
05/25/2025,21:20:33.55,7.81,43.46,-1012.21,1.98,0.18,-0.85,
05/25/2025,21:20:33.57,18.55,47.36,-1030.76,2.10,0.98,-0.40,
05/25/2025,21:20:33.59,8.30,49.32,-1018.07,1.98,2.74,-0.64,
05/25/2025,21:20:33.61,18.55,54.20,-1019.53,1.04,1.65,-1.46,
05/25/2025,21:20:33.63,3.91,52.25,-1018.07,0.73,2.80,-0.30,
05/25/2025,21:20:33.68,19.53,47.36,-1008.79,0.91,2.07,-2.29,
05/25/2025,21:20:33.70,17.58,41.50,-1024.41,1.16,2.01,1.07,
05/25/2025,21:20:33.72,16.11,40.53,-1020.02,1.89,0.24,0.06,
05/25/2025,21:20:33.74,22.46,55.66,-1006.84,0.61,0.70,0.79,
05/25/2025,21:20:33.76,8.79,51.76,-1029.79,0.46,3.99,-0.98,
05/25/2025,21:20:33.78,5.37,63.48,-1024.90,2.07,2.68,0.40,
05/25/2025,21:20:33.80,13.18,49.32,-1024.90,3.26,0.82,0.34,
05/25/2025,21:20:33.82,26.86,50.29,-1022.46,3.23,1.59,-2.35,
05/25/2025,21:20:33.84,10.25,55.66,-1017.58,2.59,1.10,-2.38,
05/25/2025,21:20:33.86,10.74,47.36,-1017.58,0.85,3.41,-1.65,
05/25/2025,21:20:33.88,12.21,40.04,-1016.60,0.64,2.29,-1.86,
05/25/2025,21:20:33.90,12.70,34.67,-1016.60,0.34,2.44,-0.91,
05/25/2025,21:20:33.92,6.35,42.97,-1009.28,2.16,2.56,-0.24,
05/25/2025,21:20:33.94,19.04,42.48,-1006.84,3.29,0.88,-0.95,
05/25/2025,21:20:33.96,17.58,51.27,-1022.46,2.53,1.28,1.07,
05/25/2025,21:20:33.98,4.39,60.55,-1028.32,2.65,1.59,-0.61,
05/25/2025,21:20:34.00,10.25,51.76,-1021.00,1.22,1.43,-0.09,
05/25/2025,21:20:34.02,12.21,61.52,-1019.53,2.65,3.26,-2.50,
05/25/2025,21:20:34.04,3.42,45.90,-1016.60,2.44,2.20,-1.28,
05/25/2025,21:20:34.06,4.39,51.76,-1023.93,1.95,0.40,-0.88,
05/25/2025,21:20:34.08,17.09,40.04,-1023.93,1.83,2.77,-4.27,
05/25/2025,21:20:34.10,18.55,57.13,-1011.72,1.07,2.50,0.58,
05/25/2025,21:20:34.12,11.23,35.64,-1021.97,2.71,1.52,-2.01,
05/25/2025,21:20:34.14,21.97,41.99,-1018.55,0.91,2.50,-1.04,
05/25/2025,21:20:34.19,15.62,60.55,-1024.90,1.95,2.62,-0.30,
05/25/2025,21:20:34.21,15.14,46.88,-1023.93,1.68,3.29,-1.49,
05/25/2025,21:20:34.23,0.49,62.99,-1008.30,1.77,0.70,1.04,
05/25/2025,21:20:34.25,15.62,45.90,-1020.02,-1.62,1.49,-2.77,
05/25/2025,21:20:34.27,26.86,41.50,-1021.97,0.61,1.46,-5.18,
05/25/2025,21:20:34.29,0.49,40.53,-1016.11,3.23,2.93,0.52,
05/25/2025,21:20:34.31,21.97,36.62,-1014.65,2.32,-0.37,1.49,
05/25/2025,21:20:34.33,13.67,41.50,-1020.51,0.95,-0.30,-0.98,
05/25/2025,21:20:34.35,18.55,49.32,-1024.90,2.74,1.80,-2.35,
05/25/2025,21:20:34.37,20.51,51.27,-1020.02,2.13,2.13,1.10,
05/25/2025,21:20:34.39,17.58,61.04,-1019.04,-0.06,3.23,-0.34,
05/25/2025,21:20:34.41,10.74,38.57,-1018.55,1.52,1.77,-2.38,
05/25/2025,21:20:34.43,9.77,49.80,-1026.37,2.56,4.05,2.38,
05/25/2025,21:20:34.45,8.30,46.88,-1020.51,1.83,2.53,-0.03,
05/25/2025,21:20:34.47,11.23,43.95,-1023.44,3.81,0.30,1.28,
05/25/2025,21:20:34.49,14.16,55.66,-1023.44,3.29,0.30,0.30,
05/25/2025,21:20:34.51,8.79,46.39,-1016.60,1.40,1.80,0.79,
05/25/2025,21:20:34.53,-0.98,47.85,-1016.60,-0.27,2.44,4.33,
05/25/2025,21:20:34.55,17.58,45.41,-1025.39,0.21,1.43,-2.77,
05/25/2025,21:20:34.57,17.09,54.20,-1023.93,1.95,1.86,-1.55,
05/25/2025,21:20:34.59,20.51,45.41,-1025.39,1.89,2.26,-1.31,
05/25/2025,21:20:34.61,17.09,41.50,-1020.02,-0.95,2.84,-2.74,
05/25/2025,21:20:34.63,12.21,49.32,-1012.21,0.67,0.85,1.22,
05/25/2025,21:20:34.65,18.07,44.43,-1025.88,0.34,0.73,0.76,
05/25/2025,21:20:34.70,16.11,46.88,-1016.11,1.13,1.13,0.91,
05/25/2025,21:20:34.72,17.09,55.66,-1018.07,1.95,2.26,-1.01,
05/25/2025,21:20:34.74,8.79,50.78,-1020.51,2.20,1.19,-0.70,
05/25/2025,21:20:34.76,10.25,43.46,-1018.07,2.16,2.32,0.15,
05/25/2025,21:20:34.78,21.00,50.78,-1012.70,1.52,2.35,-0.73,
05/25/2025,21:20:34.80,4.39,46.88,-1014.16,2.44,2.80,2.04,
05/25/2025,21:20:34.82,13.67,45.90,-1008.30,0.61,1.98,-0.27,
05/25/2025,21:20:34.84,7.32,46.39,-1014.16,1.16,1.34,-1.52,
05/25/2025,21:20:34.86,16.11,42.48,-1021.00,-1.19,-1.68,1.13,
05/25/2025,21:20:34.88,18.07,38.57,-1022.46,2.35,1.31,-3.17,
05/25/2025,21:20:34.90,8.79,46.39,-1018.55,1.43,1.59,-3.72,
05/25/2025,21:20:34.92,7.32,40.53,-1022.95,1.43,-1.04,-1.01,
05/25/2025,21:20:34.94,12.21,45.90,-1025.88,0.18,2.23,-0.27,
05/25/2025,21:20:34.96,21.48,46.88,-1017.09,2.26,1.25,-0.98,
05/25/2025,21:20:34.98,6.84,53.71,-1030.76,-0.67,-0.37,4.39,
05/25/2025,21:20:35.00,23.93,56.64,-1023.44,0.98,0.34,-0.61,
05/25/2025,21:20:35.02,16.60,50.29,-1016.11,1.59,1.31,1.68,
05/25/2025,21:20:35.04,1.95,47.36,-1016.60,1.31,2.74,-0.49,
05/25/2025,21:20:35.06,24.90,45.41,-1016.60,0.98,4.73,0.09,
05/25/2025,21:20:35.08,11.23,52.25,-1018.55,0.21,0.82,-0.15,
05/25/2025,21:20:35.10,22.46,41.02,-1019.04,1.22,2.62,-1.95,
05/25/2025,21:20:35.12,8.30,51.76,-1022.95,2.23,0.70,0.82,
05/25/2025,21:20:35.14,5.86,56.64,-1008.30,3.93,2.47,0.85,
05/25/2025,21:20:35.16,12.21,56.64,-1022.95,1.19,2.20,-1.10,
