rtcDate,rtcTime,aX,aY,aZ,gX,gY,gZ,
05/25/2025,21:13:33.24,21.48,-27.34,-1027.34,2.07,0.82,3.26,
05/25/2025,21:13:33.30,6.35,-27.34,-1020.51,1.86,0.73,-4.48,
05/25/2025,21:13:33.32,5.37,-25.88,-1011.72,0.46,4.24,0.03,
05/25/2025,21:13:33.34,1.95,-21.00,-1017.58,1.01,2.50,-1.46,
05/25/2025,21:13:33.36,4.88,-15.62,-1026.37,2.38,1.16,1.49,
05/25/2025,21:13:33.38,16.11,-16.60,-1018.07,0.03,2.23,-2.38,
05/25/2025,21:13:33.40,10.74,-21.00,-1029.30,1.68,1.83,0.00,
05/25/2025,21:13:33.42,20.51,-21.48,-1020.02,1.46,1.59,-2.65,
05/25/2025,21:13:33.44,20.02,-32.23,-1016.11,2.35,0.34,-0.91,
05/25/2025,21:13:33.46,5.86,-26.37,-1030.76,3.08,-0.40,-3.35,
05/25/2025,21:13:33.48,12.70,-26.37,-1020.02,0.34,2.07,-2.50,
05/25/2025,21:13:33.50,14.65,-25.39,-1028.32,1.71,2.04,1.74,
05/25/2025,21:13:33.52,21.48,-25.39,-1028.32,1.19,1.89,-3.38,
05/25/2025,21:13:33.54,9.77,-44.92,-1031.74,2.71,2.07,-1.07,
05/25/2025,21:13:33.56,6.84,-15.62,-1027.83,1.74,0.85,-0.61,
05/25/2025,21:13:33.58,10.74,-29.30,-1023.44,-0.09,1.98,-2.44,
05/25/2025,21:13:33.61,4.88,-23.93,-1026.37,1.52,2.71,-2.16,
05/25/2025,21:13:33.63,16.60,-29.30,-1023.44,2.07,1.16,0.82,
05/25/2025,21:13:33.65,5.37,-36.13,-1013.18,1.55,2.23,-2.16,
05/25/2025,21:13:33.67,14.16,-33.20,-1033.20,2.62,1.71,0.64,
05/25/2025,21:13:33.69,0.49,-27.34,-1028.81,2.74,2.99,0.67,
05/25/2025,21:13:33.71,5.86,-31.74,-1024.41,2.93,4.30,1.83,
05/25/2025,21:13:33.73,12.21,-28.32,-1024.90,1.37,4.05,2.01,
05/25/2025,21:13:33.75,9.28,-27.34,-1027.34,1.10,1.68,-1.65,
05/25/2025,21:13:33.79,14.65,-27.83,-1031.25,0.73,4.66,-3.90,
05/25/2025,21:13:33.82,10.74,-34.67,-1023.93,0.82,1.28,0.15,
05/25/2025,21:13:33.84,21.97,-20.02,-1026.37,3.14,2.04,0.88,
05/25/2025,21:13:33.86,13.67,-41.99,-1024.90,0.82,0.76,3.45,
05/25/2025,21:13:33.88,16.60,-21.48,-1022.95,1.98,0.24,-0.88,
05/25/2025,21:13:33.90,7.32,-20.51,-1023.93,1.65,0.88,-2.10,
05/25/2025,21:13:33.92,2.44,-29.30,-1015.62,-0.12,1.31,3.17,
05/25/2025,21:13:33.94,17.58,-29.79,-1016.60,0.40,2.07,-2.62,
05/25/2025,21:13:33.96,9.77,-23.44,-1033.20,2.26,2.10,-0.06,
05/25/2025,21:13:33.98,24.90,-37.60,-1023.93,0.85,1.34,0.79,
05/25/2025,21:13:34.00,28.32,-23.44,-1032.71,0.64,1.86,0.58,
05/25/2025,21:13:34.02,3.42,-23.44,-1015.62,2.16,2.41,-2.23,
05/25/2025,21:13:34.04,15.62,-20.02,-1025.88,1.25,-1.10,-1.55,
05/25/2025,21:13:34.06,9.28,-25.39,-1038.57,2.50,-1.10,-1.86,
05/25/2025,21:13:34.08,11.23,-29.30,-1018.07,2.20,2.74,-3.02,
05/25/2025,21:13:34.10,4.39,-26.37,-1019.04,0.55,1.55,-1.55,
05/25/2025,21:13:34.12,11.23,-24.41,-1033.20,1.55,0.40,-0.58,
05/25/2025,21:13:34.14,12.70,-37.60,-1023.93,0.91,0.27,-0.18,
05/25/2025,21:13:34.16,9.77,-21.97,-1026.37,1.92,0.30,-1.28,
05/25/2025,21:13:34.18,12.70,-25.39,-1021.97,2.84,-0.15,-2.13,
05/25/2025,21:13:34.20,6.84,-34.18,-1021.00,3.20,2.13,2.20,
05/25/2025,21:13:34.22,0.98,-25.39,-1031.25,0.00,2.74,-1.65,
05/25/2025,21:13:34.24,12.21,-20.02,-1021.97,1.28,3.11,-1.74,
05/25/2025,21:13:34.26,-4.88,-34.18,-1037.11,0.82,3.84,0.55,
05/25/2025,21:13:34.31,14.16,-11.72,-1020.02,1.92,0.21,2.32,
05/25/2025,21:13:34.33,16.11,-22.46,-1023.93,2.01,2.71,1.31,
05/25/2025,21:13:34.35,11.23,-29.30,-1026.86,1.25,3.05,-2.16,
05/25/2025,21:13:34.37,0.00,-22.95,-1031.25,1.89,1.28,-5.00,
05/25/2025,21:13:34.39,7.81,-33.20,-1015.62,-0.30,2.80,-2.16,
05/25/2025,21:13:34.41,22.95,-27.83,-1032.71,3.20,0.49,-0.06,
05/25/2025,21:13:34.43,17.09,-29.30,-1022.95,0.91,3.45,-2.41,
05/25/2025,21:13:34.45,7.32,-26.37,-1021.97,1.49,1.43,-1.98,
05/25/2025,21:13:34.47,0.98,-23.44,-1021.48,0.58,0.52,-0.70,
05/25/2025,21:13:34.49,19.04,-26.37,-1023.44,-0.03,2.04,-0.88,
05/25/2025,21:13:34.51,17.58,-21.97,-1028.81,1.74,2.35,-3.99,
05/25/2025,21:13:34.53,0.98,-29.30,-1022.95,0.91,1.10,0.40,
05/25/2025,21:13:34.55,4.39,-25.88,-1025.39,3.14,1.55,2.13,
05/25/2025,21:13:34.57,5.37,-28.81,-1017.58,1.46,2.07,-1.77,
05/25/2025,21:13:34.59,11.23,-32.23,-1023.93,0.52,2.44,-0.55,
05/25/2025,21:13:34.61,9.28,-35.64,-1029.30,1.68,2.07,2.62,
05/25/2025,21:13:34.63,20.51,-27.83,-1027.34,-0.24,2.53,0.49,
05/25/2025,21:13:34.65,8.79,-24.90,-1032.71,-0.52,3.29,-2.01,
05/25/2025,21:13:34.67,11.23,-29.79,-1024.41,1.19,0.03,-0.43,
05/25/2025,21:13:34.69,5.86,-28.32,-1027.83,2.07,1.92,-1.31,
05/25/2025,21:13:34.71,17.58,-40.53,-1028.81,0.67,3.23,-1.10,
05/25/2025,21:13:34.73,12.70,-26.86,-1021.97,1.31,3.17,1.07,
05/25/2025,21:13:34.75,23.93,-29.79,-1017.58,2.26,1.22,-0.98,
05/25/2025,21:13:34.77,4.39,-50.29,-1018.55,1.31,2.38,-2.99,
05/25/2025,21:13:34.82,12.21,-26.86,-1027.34,2.99,0.95,-0.46,
05/25/2025,21:13:34.84,2.93,-24.90,-1020.02,0.82,1.52,0.61,
05/25/2025,21:13:34.86,12.70,-23.44,-1009.28,2.23,2.41,0.00,
05/25/2025,21:13:34.88,24.41,-31.25,-1021.97,0.61,2.38,-1.71,
05/25/2025,21:13:34.90,17.09,-11.72,-1019.04,-0.95,1.59,-0.52,
05/25/2025,21:13:34.92,7.81,-21.00,-1031.25,1.10,1.52,1.19,
05/25/2025,21:13:34.94,6.84,-18.55,-1018.07,-0.61,4.48,-0.98,
05/25/2025,21:13:34.96,3.42,-27.34,-1027.34,3.35,1.16,-0.34,
05/25/2025,21:13:34.98,0.00,-30.76,-1023.44,1.46,1.19,1.07,
05/25/2025,21:13:35.00,3.42,-36.62,-1025.88,2.01,3.26,-3.35,
05/25/2025,21:13:35.02,14.16,-28.32,-1032.23,0.91,-0.27,-3.90,
05/25/2025,21:13:35.04,7.32,-21.97,-1030.76,2.71,1.65,-0.43,
05/25/2025,21:13:35.06,10.74,-23.44,-1026.37,1.13,2.04,-3.99,
05/25/2025,21:13:35.08,19.04,-32.71,-1022.95,1.04,0.30,-1.31,
05/25/2025,21:13:35.10,0.98,-28.32,-1020.51,0.37,3.14,0.98,
05/25/2025,21:13:35.12,23.93,-30.27,-1028.32,-0.58,1.40,1.46,
05/25/2025,21:13:35.14,22.95,-27.83,-1024.90,1.95,1.71,1.65,
05/25/2025,21:13:35.16,7.81,-17.09,-1033.69,1.31,3.63,-2.16,
05/25/2025,21:13:35.18,21.97,-31.74,-1021.00,2.96,0.27,-1.34,
05/25/2025,21:13:35.20,10.74,-37.11,-1032.71,1.04,5.21,1.31,
05/25/2025,21:13:35.22,18.55,-34.67,-1022.46,1.89,0.34,-2.35,
05/25/2025,21:13:35.24,18.55,-28.81,-1032.71,0.79,0.43,-3.81,
05/25/2025,21:13:35.26,17.58,-32.23,-1036.13,1.25,0.18,-2.10,
05/25/2025,21:13:35.28,12.21,-21.00,-1019.04,1.95,2.68,-4.73,
05/25/2025,21:13:35.33,11.72,-31.74,-1021.00,2.80,1.19,0.24,
05/25/2025,21:13:35.35,24.90,-22.46,-1027.34,0.18,1.07,-2.41,
05/25/2025,21:13:35.37,11.72,-27.83,-1019.04,1.25,1.86,-1.19,
05/25/2025,21:13:35.39,21.48,-16.60,-1018.55,2.04,0.15,1.83,
05/25/2025,21:13:35.41,16.60,-23.93,-1021.97,0.43,1.98,1.86,
05/25/2025,21:13:35.43,21.00,-33.69,-1019.53,1.59,2.90,0.12,
05/25/2025,21:13:35.45,13.67,-24.41,-1020.02,-1.31,1.43,0.52,
05/25/2025,21:13:35.47,28.32,-27.34,-1016.60,0.27,1.16,1.01,
05/25/2025,21:13:35.49,13.67,-27.34,-1022.95,0.34,2.07,0.70,
05/25/2025,21:13:35.51,14.16,-28.32,-1020.02,1.59,3.35,-0.27,
05/25/2025,21:13:35.53,14.16,-42.97,-1032.71,1.62,3.11,-0.30,
05/25/2025,21:13:35.55,7.81,-22.46,-1016.60,3.87,1.37,-2.71,
05/25/2025,21:13:35.57,6.35,-18.07,-1034.67,3.38,2.01,1.25,
05/25/2025,21:13:35.59,-6.35,-22.46,-1028.81,1.95,0.37,-0.15,
05/25/2025,21:13:35.61,17.09,-38.09,-1016.11,2.47,0.73,-1.10,
05/25/2025,21:13:35.63,9.28,-31.74,-1021.97,3.54,3.02,-0.88,
05/25/2025,21:13:35.65,16.11,-30.76,-1013.18,-0.37,0.49,1.49,
05/25/2025,21:13:35.67,8.30,-19.53,-1018.07,1.10,3.66,0.46,
05/25/2025,21:13:35.69,14.16,-33.69,-1028.81,2.96,2.87,4.42,
05/25/2025,21:13:35.71,18.55,-17.58,-1025.39,0.00,2.99,-0.61,
05/25/2025,21:13:35.73,8.30,-34.18,-1026.86,2.74,3.17,-0.70,
05/25/2025,21:13:35.75,3.42,-38.57,-1021.48,1.65,1.16,-0.18,
05/25/2025,21:13:35.77,0.98,-27.34,-1021.97,1.04,2.90,-2.16,
05/25/2025,21:13:35.79,-4.88,-35.64,-1022.95,0.76,0.67,-2.04,
05/25/2025,21:13:35.84,11.72,-31.74,-1023.44,-0.52,3.78,-2.26,
05/25/2025,21:13:35.86,15.62,-30.76,-1030.76,0.18,2.74,0.49,
05/25/2025,21:13:35.88,14.65,-39.06,-1034.67,-0.64,1.68,2.96,
05/25/2025,21:13:35.90,9.28,-24.90,-1010.25,0.61,2.56,-1.16,
05/25/2025,21:13:35.92,15.14,-18.55,-1024.90,0.55,2.65,-0.52,
05/25/2025,21:13:35.94,15.62,-23.93,-1021.48,0.64,2.26,-0.85,
05/25/2025,21:13:35.96,11.23,-16.60,-1022.95,1.04,1.55,0.64,
05/25/2025,21:13:35.98,20.51,-19.53,-1012.70,2.32,1.40,-0.73,
05/25/2025,21:13:36.00,15.14,-19.53,-1017.09,3.08,2.44,4.97,
05/25/2025,21:13:36.02,9.28,-26.37,-1033.20,1.22,1.52,-0.85,
05/25/2025,21:13:36.04,4.88,-36.13,-1026.86,2.32,3.84,-3.32,
05/25/2025,21:13:36.06,16.60,-36.62,-1022.46,1.74,1.98,-1.16,
05/25/2025,21:13:36.08,9.28,-32.71,-1022.95,-0.52,2.07,0.12,
05/25/2025,21:13:36.10,12.70,-29.30,-1020.51,2.23,2.84,0.64,
05/25/2025,21:13:36.12,25.39,-29.79,-1033.20,0.03,2.50,0.00,
05/25/2025,21:13:36.14,6.35,-35.16,-1023.93,2.59,0.85,-3.35,
05/25/2025,21:13:36.16,17.58,-15.62,-1024.41,2.77,1.86,-2.50,
05/25/2025,21:13:36.18,12.21,-26.37,-1023.44,2.35,1.71,0.95,
05/25/2025,21:13:36.20,12.70,-28.81,-1028.81,2.44,0.18,-0.85,
05/25/2025,21:13:36.22,5.86,-36.62,-1034.67,0.85,2.41,-1.04,
05/25/2025,21:13:36.24,-2.93,-11.72,-1029.79,1.89,2.44,-0.85,
05/25/2025,21:13:36.26,2.44,-32.23,-1005.86,2.65,1.89,-2.99,
05/25/2025,21:13:36.28,11.23,-33.20,-1028.32,2.50,0.52,2.93,
05/25/2025,21:13:36.30,17.58,-30.76,-1021.00,-0.76,2.23,-0.95,
05/25/2025,21:13:36.35,14.16,-20.02,-1022.95,1.34,3.84,-0.21,
05/25/2025,21:13:36.37,8.79,-27.83,-1028.81,0.88,3.11,1.68,
05/25/2025,21:13:36.39,29.79,-24.90,-1016.60,1.25,1.25,-0.12,
05/25/2025,21:13:36.41,-4.39,-25.88,-1030.27,1.62,1.37,-0.64,
05/25/2025,21:13:36.43,12.21,-31.25,-1025.39,0.82,0.91,-3.48,
05/25/2025,21:13:36.45,-0.98,-38.09,-1021.97,0.12,1.98,-0.88,
05/25/2025,21:13:36.47,20.02,-33.20,-1031.25,-0.21,4.27,-3.72,
05/25/2025,21:13:36.49,6.84,-31.25,-1027.34,-0.27,0.82,-0.82,
05/25/2025,21:13:36.51,10.25,-36.13,-1020.51,3.35,3.35,0.40,
05/25/2025,21:13:36.53,11.72,-28.32,-1022.95,2.04,2.68,-0.82,
05/25/2025,21:13:36.55,11.23,-42.97,-1021.48,1.74,2.04,1.77,
05/25/2025,21:13:36.57,9.28,-23.44,-1027.83,2.41,0.91,0.27,
05/25/2025,21:13:36.59,5.37,-30.27,-1024.90,2.23,3.05,1.10,
05/25/2025,21:13:36.61,13.18,-21.48,-1017.58,1.59,0.73,0.43,
05/25/2025,21:13:36.63,6.84,-28.81,-1025.39,2.74,1.49,4.30,
05/25/2025,21:13:36.65,4.88,-22.46,-1020.51,-0.24,0.46,-1.59,
05/25/2025,21:13:36.67,12.21,-33.20,-1021.00,0.09,2.50,-1.95,
05/25/2025,21:13:36.69,1.46,-28.81,-1023.44,1.19,3.63,-0.18,
05/25/2025,21:13:36.71,18.07,-34.67,-1027.83,1.46,2.16,-3.35,
05/25/2025,21:13:36.73,12.21,-21.97,-1026.37,0.12,2.01,-4.27,
05/25/2025,21:13:36.75,0.49,-24.41,-1029.79,2.84,2.26,-0.91,
05/25/2025,21:13:36.77,8.30,-31.74,-1024.90,-1.25,2.10,3.75,
05/25/2025,21:13:36.79,11.23,-21.00,-1017.09,1.74,2.65,1.16,
05/25/2025,21:13:36.81,18.55,-19.04,-1015.62,3.35,2.71,-1.71,
05/25/2025,21:13:36.86,5.37,-19.53,-1013.67,0.67,2.38,-1.55,
05/25/2025,21:13:36.88,0.49,-33.20,-1021.97,1.28,3.38,-0.70,
05/25/2025,21:13:36.90,-1.46,-37.11,-1021.00,1.22,1.04,-1.25,
05/25/2025,21:13:36.92,8.79,-24.41,-1021.97,-0.03,2.13,-1.86,
05/25/2025,21:13:36.94,0.00,-35.16,-1023.93,-0.30,2.23,1.19,
05/25/2025,21:13:36.96,-5.37,-31.74,-1020.51,0.64,4.09,-0.88,
05/25/2025,21:13:36.98,13.18,-31.74,-1021.00,0.55,1.07,-0.24,
05/25/2025,21:13:37.00,10.74,-35.64,-1014.65,1.10,-0.55,1.55,
05/25/2025,21:13:37.02,7.32,-30.76,-1025.39,1.16,2.74,-1.55,
05/25/2025,21:13:37.04,12.21,-29.30,-1016.60,3.69,-0.67,-1.43,
05/25/2025,21:13:37.07,-5.37,-15.62,-1030.76,1.74,1.55,-0.98,
05/25/2025,21:13:37.09,13.18,-22.95,-1013.18,1.89,2.26,0.79,
05/25/2025,21:13:37.11,1.95,-15.14,-1030.27,1.95,0.82,0.70,
05/25/2025,21:13:37.13,2.93,-31.25,-1021.48,0.49,-0.30,-0.37,
05/25/2025,21:13:37.15,13.67,-35.16,-1019.53,4.60,0.15,-0.40,
05/25/2025,21:13:37.17,6.84,-32.71,-1024.90,1.74,2.84,-0.88,
05/25/2025,21:13:37.19,12.70,-35.64,-1007.81,2.23,1.83,0.82,
05/25/2025,21:13:37.21,-2.44,-31.74,-1022.95,-0.55,-1.62,-0.30,
05/25/2025,21:13:37.23,14.65,-24.90,-1026.86,1.13,4.09,-0.85,
05/25/2025,21:13:37.25,10.25,-24.41,-1030.27,0.55,1.01,-1.25,
05/25/2025,21:13:37.27,9.77,-23.93,-1022.95,1.04,0.27,1.68,
05/25/2025,21:13:37.29,16.11,-33.20,-1026.86,1.37,0.37,-4.24,
05/25/2025,21:13:37.31,2.93,-28.32,-1026.37,1.31,1.95,1.19,
05/25/2025,21:13:37.33,5.37,-38.57,-1022.46,2.53,1.46,-0.43,
05/25/2025,21:13:37.38,8.79,-27.34,-1021.00,2.29,0.30,1.62,
05/25/2025,21:13:37.40,17.58,-39.06,-1023.44,1.77,1.22,0.09,
05/25/2025,21:13:37.42,3.91,-27.34,-1018.07,2.04,0.79,-1.16,
05/25/2025,21:13:37.44,12.21,-21.48,-1035.16,2.07,1.89,-1.01,
05/25/2025,21:13:37.46,15.14,-31.25,-1026.37,0.30,2.62,1.07,
05/25/2025,21:13:37.48,13.18,-27.83,-1015.14,2.38,3.23,-1.98,
05/25/2025,21:13:37.50,24.41,-41.02,-1027.34,1.83,0.40,1.46,
05/25/2025,21:13:37.52,0.00,-20.51,-1035.16,0.03,1.13,-5.03,
05/25/2025,21:13:37.54,1.46,-32.23,-1022.95,1.16,2.20,-0.40,
05/25/2025,21:13:37.56,15.62,-26.86,-1027.34,1.34,2.01,-0.49,
05/25/2025,21:13:37.58,10.74,-28.81,-1031.74,1.07,0.06,1.71,
05/25/2025,21:13:37.60,23.93,-37.11,-1027.34,2.26,1.49,-0.64,
05/25/2025,21:13:37.62,-8.30,-30.76,-1021.48,4.51,3.51,1.28,
05/25/2025,21:13:37.64,18.55,-32.71,-1028.81,0.00,1.71,0.06,
05/25/2025,21:13:37.66,0.98,-24.41,-1022.95,1.10,3.54,-1.07,
05/25/2025,21:13:37.68,4.39,-21.97,-1021.48,0.21,4.85,-0.82,
05/25/2025,21:13:37.70,-7.32,-23.93,-1027.83,-0.03,1.80,2.23,
05/25/2025,21:13:37.72,15.14,-29.79,-1029.79,1.89,2.56,-0.64,
05/25/2025,21:13:37.74,7.81,-33.69,-1021.48,1.31,0.61,-0.18,
05/25/2025,21:13:37.76,-6.35,-32.23,-1021.48,2.84,3.99,1.10,
05/25/2025,21:13:37.78,6.35,-34.18,-1036.13,1.52,-2.26,0.00,
05/25/2025,21:13:37.80,-8.30,-32.23,-1017.09,1.43,3.93,-2.23,
05/25/2025,21:13:37.82,19.04,-24.90,-1022.46,0.91,1.16,1.86,
05/25/2025,21:13:37.84,20.51,-17.58,-1020.51,1.34,4.36,-3.29,
05/25/2025,21:13:37.89,21.97,-16.11,-1025.88,2.68,0.76,-0.18,
05/25/2025,21:13:37.91,14.65,-29.79,-1025.88,0.58,0.58,-2.16,
05/25/2025,21:13:37.93,12.21,-31.25,-1024.41,2.99,1.28,0.76,
05/25/2025,21:13:37.95,3.42,-22.46,-1026.37,2.01,2.53,3.84,
05/25/2025,21:13:37.97,-2.44,-24.41,-1014.16,3.45,0.82,-2.80,
05/25/2025,21:13:37.99,7.81,-27.83,-1019.04,2.41,1.65,-2.10,
05/25/2025,21:13:38.01,5.86,-23.93,-1022.46,2.13,2.62,1.01,
05/25/2025,21:13:38.03,13.18,-9.77,-1033.20,1.77,2.23,1.10,
05/25/2025,21:13:38.05,14.65,-41.02,-1019.53,0.55,4.76,1.10,
05/25/2025,21:13:38.07,-2.93,-31.25,-1029.30,0.58,1.62,-1.95,
05/25/2025,21:13:38.09,3.42,-18.07,-1016.60,0.58,3.93,-2.38,
05/25/2025,21:13:38.11,23.44,-25.88,-1028.32,0.98,0.49,-2.29,
05/25/2025,21:13:38.13,6.84,-34.67,-1025.88,1.01,1.28,-1.74,
05/25/2025,21:13:38.15,16.11,-41.99,-1007.81,0.79,3.75,2.04,
05/25/2025,21:13:38.17,13.18,-18.07,-1025.88,0.79,1.16,-3.57,
05/25/2025,21:13:38.19,2.44,-18.07,-1014.65,2.87,0.49,0.52,
05/25/2025,21:13:38.21,8.30,-24.41,-1023.93,2.50,1.31,0.73,
05/25/2025,21:13:38.23,5.37,-36.13,-1028.81,1.40,1.86,-2.93,
05/25/2025,21:13:38.25,18.55,-30.76,-1021.97,0.09,3.29,2.04,
05/25/2025,21:13:38.27,7.32,-26.86,-1012.70,1.13,3.78,-2.99,
05/25/2025,21:13:38.29,-5.37,-30.27,-1032.23,0.21,0.98,-1.89,
05/25/2025,21:13:38.31,9.28,-30.76,-1022.46,0.49,1.34,-0.91,
05/25/2025,21:13:38.33,15.14,-26.86,-1025.39,-0.03,3.08,-3.11,
05/25/2025,21:13:38.35,11.23,-31.74,-1029.79,-0.61,0.03,-1.80,
05/25/2025,21:13:38.40,9.77,-24.90,-1021.48,1.13,2.13,-0.95,
05/25/2025,21:13:38.42,6.84,-30.27,-1027.83,1.86,2.84,-1.71,
05/25/2025,21:13:38.44,9.77,-23.44,-1021.48,3.63,3.23,-0.43,
05/25/2025,21:13:38.46,7.81,-27.34,-1034.18,2.13,-0.34,-0.49,
05/25/2025,21:13:38.48,13.18,-34.18,-1029.30,2.16,0.52,-0.88,
05/25/2025,21:13:38.50,16.11,-24.41,-1020.51,2.35,2.23,0.09,
05/25/2025,21:13:38.52,0.49,-32.71,-1032.71,-0.24,1.25,-2.16,
05/25/2025,21:13:38.54,6.35,-26.37,-1027.83,2.26,3.02,1.92,
05/25/2025,21:13:38.56,6.84,-29.79,-1029.30,1.19,3.45,1.04,
05/25/2025,21:13:38.58,-4.88,-27.34,-1019.04,3.81,3.75,2.53,
05/25/2025,21:13:38.60,17.58,-29.79,-1013.18,2.26,3.66,-2.13,
05/25/2025,21:13:38.62,9.77,-28.81,-1025.88,2.35,0.82,-0.37,
05/25/2025,21:13:38.64,-4.88,-21.97,-1026.37,3.54,1.68,2.84,
05/25/2025,21:13:38.66,17.58,-30.76,-1029.79,2.41,2.13,-0.73,
05/25/2025,21:13:38.68,11.72,-37.11,-1029.79,1.07,2.84,-1.98,
05/25/2025,21:13:38.70,3.42,-30.27,-1033.20,-0.73,3.20,0.98,
05/25/2025,21:13:38.72,7.32,-31.25,-1036.13,-0.95,3.17,-3.87,
05/25/2025,21:13:38.74,21.48,-30.27,-1022.95,-0.30,3.66,-2.07,
05/25/2025,21:13:38.76,5.86,-35.64,-1027.34,2.47,0.76,-2.41,
05/25/2025,21:13:38.78,11.72,-34.18,-1033.20,0.98,3.02,2.56,
05/25/2025,21:13:38.80,9.28,-21.48,-1020.51,2.23,1.65,-0.61,
05/25/2025,21:13:38.82,3.42,-30.76,-1017.58,0.00,1.65,-0.18,
05/25/2025,21:13:38.84,7.32,-26.37,-1040.53,1.37,2.62,-2.13,
05/25/2025,21:13:38.86,7.81,-25.88,-1022.95,2.93,0.91,-3.60,
05/25/2025,21:13:38.91,13.67,-39.06,-1019.04,1.98,1.98,0.70,
05/25/2025,21:13:38.93,-1.46,-30.76,-1024.90,1.22,1.77,0.55,
05/25/2025,21:13:38.95,14.65,-25.88,-1024.90,1.62,0.61,0.30,
05/25/2025,21:13:38.97,26.86,-35.16,-1025.39,-0.40,1.98,-3.38,
05/25/2025,21:13:38.99,11.23,-29.79,-1026.86,-0.40,-0.43,1.74,
05/25/2025,21:13:39.01,0.00,-28.32,-1031.25,1.68,-0.55,-3.45,
05/25/2025,21:13:39.03,16.11,-34.67,-1028.81,1.98,1.77,0.55,
05/25/2025,21:13:39.05,21.97,-23.44,-1028.32,4.85,2.87,1.37,
05/25/2025,21:13:39.07,13.18,-18.07,-1022.95,2.84,1.89,-2.13,
05/25/2025,21:13:39.09,11.23,-12.21,-1022.46,3.17,-0.21,-2.50,
05/25/2025,21:13:39.11,-2.93,-31.74,-1014.65,2.62,1.10,-4.42,
05/25/2025,21:13:39.13,12.21,-31.25,-1021.00,2.87,2.65,0.98,
05/25/2025,21:13:39.15,3.91,-24.41,-1029.30,1.49,2.26,1.25,
05/25/2025,21:13:39.17,7.32,-16.11,-1028.32,0.49,1.71,2.29,
05/25/2025,21:13:39.19,2.93,-35.16,-1023.44,1.04,3.35,-0.12,
05/25/2025,21:13:39.21,6.84,-32.71,-1033.20,2.26,1.28,-2.10,
05/25/2025,21:13:39.23,6.35,-40.04,-1006.84,1.37,3.08,2.10,
05/25/2025,21:13:39.25,6.84,-31.74,-1017.09,1.86,1.49,-0.46,
05/25/2025,21:13:39.27,2.93,-32.23,-1018.07,2.65,3.02,-2.07,
05/25/2025,21:13:39.29,17.58,-21.00,-1030.76,1.46,0.43,0.49,
05/25/2025,21:13:39.31,19.53,-33.20,-1015.14,2.71,2.35,-1.92,
05/25/2025,21:13:39.33,17.58,-33.20,-1028.81,-0.37,1.77,-2.62,
05/25/2025,21:13:39.35,13.18,-24.90,-1033.20,-0.55,2.74,2.77,
05/25/2025,21:13:39.37,-127.93,854.98,-2066.89,-5.30,-11.34,-3.60,
05/25/2025,21:13:39.42,14.16,-40.04,-1043.46,1.31,0.03,-2.13,
05/25/2025,21:13:39.44,-19.53,-12.21,-1087.89,1.28,3.45,-1.65,
05/25/2025,21:13:39.46,37.11,-59.08,-1207.03,5.12,4.02,-2.16,
05/25/2025,21:13:39.48,84.47,136.23,-1010.25,-0.34,3.60,-1.83,
05/25/2025,21:13:39.50,16.11,-24.90,-1000.00,1.25,2.29,-1.04,
05/25/2025,21:13:39.52,0.49,-28.81,-1023.93,0.95,2.04,-3.96,
05/25/2025,21:13:39.54,11.72,-35.16,-1025.88,0.09,1.43,-1.19,
05/25/2025,21:13:39.56,17.58,-34.67,-1019.04,1.98,2.50,0.73,
05/25/2025,21:13:39.58,11.23,-30.27,-1027.83,1.49,0.15,-3.84,
05/25/2025,21:13:39.60,11.23,-21.48,-1019.04,-1.52,0.98,0.46,
05/25/2025,21:13:39.62,6.35,-29.30,-1021.97,1.25,-1.28,1.13,
05/25/2025,21:13:39.64,15.14,-30.27,-1031.74,3.29,3.75,2.01,
05/25/2025,21:13:39.66,-5.37,-38.09,-1021.00,3.75,1.86,0.91,
05/25/2025,21:13:39.68,-1.95,-35.16,-1019.04,-0.06,1.71,-0.27,
05/25/2025,21:13:39.70,5.37,-27.34,-1021.48,1.43,4.21,-0.58,
05/25/2025,21:13:39.73,15.62,-40.04,-1028.32,3.87,1.37,2.62,
05/25/2025,21:13:39.75,21.97,-10.25,-1022.95,2.74,1.49,-0.46,
05/25/2025,21:13:39.77,15.62,-27.83,-1025.39,2.07,-0.12,1.89,
05/25/2025,21:13:39.79,8.79,-33.69,-1014.16,1.22,1.92,-2.29,
05/25/2025,21:13:39.81,8.30,-39.06,-1028.32,-0.37,1.04,-2.41,
05/25/2025,21:13:39.83,3.42,-31.25,-1029.30,-0.76,1.86,-1.55,
05/25/2025,21:13:39.85,5.37,-23.93,-1023.44,0.79,3.41,-2.71,
05/25/2025,21:13:39.87,4.88,-44.43,-1021.48,0.43,0.64,0.43,
05/25/2025,21:13:39.89,19.04,-29.79,-1018.07,0.06,2.38,-1.25,
05/25/2025,21:13:39.97,5.86,-41.02,-1021.97,1.49,1.71,-1.98,
05/25/2025,21:13:39.99,9.77,-29.79,-1018.07,0.79,1.71,-1.95,
05/25/2025,21:13:40.01,12.21,-26.37,-1021.48,0.67,2.71,1.04,
05/25/2025,21:13:40.03,4.88,-32.71,-1030.27,1.34,0.09,-2.93,
05/25/2025,21:13:40.05,1.46,-27.34,-1031.74,0.09,2.47,-0.06,
05/25/2025,21:13:40.07,15.62,-25.88,-1014.65,1.52,3.02,2.01,
05/25/2025,21:13:40.09,8.30,-34.18,-1025.88,1.71,3.05,-1.40,
05/25/2025,21:13:40.11,6.84,-30.76,-1033.69,1.86,2.41,-1.16,
05/25/2025,21:13:40.13,4.39,-27.83,-1020.51,2.50,0.06,-4.05,
05/25/2025,21:13:40.15,0.49,-26.37,-1023.93,0.55,1.13,-0.24,
05/25/2025,21:13:40.17,17.58,-39.06,-1021.48,2.38,3.29,-0.37,
05/25/2025,21:13:40.19,14.65,-26.37,-1024.90,3.02,0.88,0.61,
05/25/2025,21:13:40.21,4.39,-27.34,-1023.44,1.19,2.38,0.18,
05/25/2025,21:13:40.23,8.30,-27.34,-1025.88,1.01,2.59,0.37,
05/25/2025,21:13:40.25,5.37,-26.37,-1016.60,2.74,2.13,-4.05,
05/25/2025,21:13:40.27,15.62,-37.11,-1032.71,1.43,2.87,-0.67,
05/25/2025,21:13:40.29,9.28,-21.00,-1027.34,1.77,1.83,0.21,
05/25/2025,21:13:40.31,12.70,-24.41,-1025.39,0.76,2.44,-1.77,
05/25/2025,21:13:40.33,6.84,-22.95,-1070.31,0.55,-0.03,-0.91,
05/25/2025,21:13:40.35,15.14,-29.30,-1028.32,1.62,2.20,2.56,
05/25/2025,21:13:40.37,-2.44,-34.67,-1024.90,2.04,3.72,2.01,
05/25/2025,21:13:40.39,2.93,-22.95,-1020.51,2.47,0.73,-2.38,
05/25/2025,21:13:40.41,13.67,-25.88,-1025.39,1.16,1.95,0.85,
05/25/2025,21:13:40.46,10.74,-29.79,-1027.83,0.06,1.98,1.04,
05/25/2025,21:13:40.49,15.14,-32.71,-1022.95,1.25,2.68,2.90,
05/25/2025,21:13:40.51,11.23,-38.09,-1026.37,0.12,1.89,2.56,
05/25/2025,21:13:40.53,6.35,-39.06,-1022.95,0.67,2.10,0.12,
05/25/2025,21:13:40.55,16.60,-28.32,-1027.83,0.03,3.29,0.03,
05/25/2025,21:13:40.57,1.95,-38.57,-1026.86,1.22,0.76,-1.10,
05/25/2025,21:13:40.59,19.04,-28.81,-1017.58,3.54,1.07,-1.55,
05/25/2025,21:13:40.61,14.16,-36.62,-1026.37,1.19,4.21,-2.04,
05/25/2025,21:13:40.63,9.28,-24.90,-1028.81,2.84,0.43,-0.79,
05/25/2025,21:13:40.65,17.09,-35.64,-1032.71,0.85,2.35,2.01,
05/25/2025,21:13:40.67,8.79,-32.23,-1026.37,1.74,0.88,-4.05,
05/25/2025,21:13:40.69,-10.74,-22.95,-1027.34,3.75,1.59,-0.73,
05/25/2025,21:13:40.71,8.79,-19.53,-1031.74,1.19,5.03,0.85,
05/25/2025,21:13:40.73,1.46,-21.00,-1026.86,0.09,2.20,-1.95,
05/25/2025,21:13:40.75,8.30,-25.39,-1028.32,1.28,1.74,-2.93,
05/25/2025,21:13:40.77,5.37,-29.79,-1006.35,1.52,-0.12,-0.40,
05/25/2025,21:13:40.79,1.95,-26.86,-1033.69,0.85,-1.16,-0.09,
05/25/2025,21:13:40.81,11.72,-44.92,-1029.30,1.25,2.53,2.50,
05/25/2025,21:13:40.83,8.79,-16.11,-1013.67,-0.21,2.96,1.55,
05/25/2025,21:13:40.85,12.21,-35.64,-1025.39,1.04,3.08,-2.41,
05/25/2025,21:13:40.87,8.79,-26.37,-1021.00,2.13,3.05,0.43,
05/25/2025,21:13:40.89,3.91,-31.25,-1022.46,1.65,2.47,1.43,
05/25/2025,21:13:40.91,11.72,-26.86,-1027.34,2.38,3.05,-3.35,
05/25/2025,21:13:40.93,10.74,-25.39,-1018.55,2.56,1.22,2.59,
05/25/2025,21:13:40.98,5.37,-29.30,-1007.81,1.01,0.64,-3.38,
05/25/2025,21:13:41.00,16.11,-33.69,-1028.81,1.68,0.58,-2.90,
05/25/2025,21:13:41.02,10.74,-40.04,-1032.71,2.77,1.71,0.67,
05/25/2025,21:13:41.04,7.32,-21.97,-1024.90,0.67,0.95,-1.55,
05/25/2025,21:13:41.06,-4.39,-22.46,-1018.07,2.07,0.49,-1.80,
05/25/2025,21:13:41.08,0.49,-36.62,-1017.09,2.93,2.16,3.26,
05/25/2025,21:13:41.10,21.97,-30.27,-1016.11,3.05,0.15,-0.30,
05/25/2025,21:13:41.12,8.79,-39.55,-1018.55,2.68,1.31,2.56,
05/25/2025,21:13:41.14,15.62,-41.99,-1034.67,2.62,-1.22,-1.89,
05/25/2025,21:13:41.16,13.18,-27.34,-1026.37,1.92,1.34,-0.18,
05/25/2025,21:13:41.18,16.11,-39.06,-1019.53,2.96,0.24,-0.09,
05/25/2025,21:13:41.20,14.65,-32.23,-1030.27,1.68,4.97,1.59,
05/25/2025,21:13:41.22,1.46,-27.34,-1021.00,-0.61,1.80,1.80,
05/25/2025,21:13:41.24,13.67,-32.71,-1031.25,0.91,1.13,-3.60,
05/25/2025,21:13:41.26,1.46,-32.71,-1023.44,1.55,4.63,-1.34,
05/25/2025,21:13:41.28,9.77,-33.69,-1027.34,2.07,0.49,-0.55,
05/25/2025,21:13:41.30,1.95,-25.39,-1021.48,1.10,-0.18,-1.49,
05/25/2025,21:13:41.32,7.32,-34.67,-1024.41,-1.65,-0.34,1.37,
05/25/2025,21:13:41.34,18.07,-26.37,-1015.62,0.73,1.28,-1.74,
05/25/2025,21:13:41.36,12.70,-27.34,-1031.25,2.50,3.29,-3.69,
05/25/2025,21:13:41.38,13.67,-31.25,-1026.86,1.19,0.64,-3.11,
05/25/2025,21:13:41.40,12.70,-31.25,-1020.51,1.10,0.34,1.22,
05/25/2025,21:13:41.42,15.14,-30.76,-1032.23,1.10,-0.64,0.06,
05/25/2025,21:13:41.44,1.46,-33.20,-1017.09,0.91,1.07,2.20,
05/25/2025,21:13:41.49,17.58,-24.41,-1018.55,0.49,1.07,1.13,
05/25/2025,21:13:41.51,8.30,-31.25,-1016.11,-0.15,3.20,0.76,
05/25/2025,21:13:41.53,13.67,-33.20,-1032.23,1.71,2.65,-0.61,
05/25/2025,21:13:41.55,2.93,-11.72,-1022.95,2.47,0.73,-0.49,
05/25/2025,21:13:41.57,9.77,-21.97,-1014.16,1.80,2.16,1.65,
05/25/2025,21:13:41.59,9.77,-24.41,-1017.09,3.45,2.13,-1.49,
05/25/2025,21:13:41.61,-0.98,-23.44,-1008.30,1.80,1.86,-3.20,
05/25/2025,21:13:41.63,7.81,-34.18,-1010.74,1.98,2.77,0.85,
05/25/2025,21:13:41.65,10.74,-20.02,-1021.00,1.55,-0.27,1.31,
05/25/2025,21:13:41.67,7.81,-29.79,-1016.11,2.38,3.26,0.58,
05/25/2025,21:13:41.69,4.88,-36.62,-1021.48,2.26,2.26,-4.42,
05/25/2025,21:13:41.71,13.18,-33.20,-1019.53,1.89,2.07,-0.82,
05/25/2025,21:13:41.73,-5.37,-36.13,-1015.62,1.59,2.07,0.52,
05/25/2025,21:13:41.75,7.32,-21.97,-1031.74,1.71,2.44,0.70,
05/25/2025,21:13:41.77,6.35,-31.74,-1019.04,-0.76,3.54,-1.92,
05/25/2025,21:13:41.79,29.30,-22.95,-1035.16,1.04,2.01,1.59,
05/25/2025,21:13:41.81,1.46,-18.55,-1018.55,0.18,2.38,2.20,
05/25/2025,21:13:41.83,9.77,-38.09,-1013.18,2.23,3.05,0.15,
05/25/2025,21:13:41.85,7.81,-38.09,-1025.39,0.95,3.57,0.24,
05/25/2025,21:13:41.87,4.39,-36.62,-1016.60,0.34,1.10,-1.77,
05/25/2025,21:13:41.89,0.98,-28.32,-1036.13,0.91,1.10,-6.62,
05/25/2025,21:13:41.91,6.35,-28.32,-1035.64,-0.88,1.01,0.06,
05/25/2025,21:13:41.93,4.88,-37.60,-1025.39,1.37,2.35,-1.22,
05/25/2025,21:13:41.95,-3.42,-29.30,-1020.51,0.24,0.79,-2.96,
05/25/2025,21:13:42.00,12.21,-34.67,-1032.23,0.85,2.13,-1.40,
05/25/2025,21:13:42.02,7.32,-20.51,-1015.62,2.32,3.20,-0.70,
05/25/2025,21:13:42.04,10.74,-32.71,-1029.79,0.43,3.60,0.12,
05/25/2025,21:13:42.06,6.84,-30.27,-1019.53,0.12,-1.74,-0.76,
05/25/2025,21:13:42.08,22.46,-36.62,-1021.48,1.74,2.90,-0.85,
05/25/2025,21:13:42.10,2.44,-30.27,-1027.83,2.68,2.71,-3.99,
05/25/2025,21:13:42.12,5.37,-17.58,-1026.86,1.89,3.66,-2.62,
05/25/2025,21:13:42.14,2.93,-23.44,-1011.72,0.27,1.55,-0.58,
05/25/2025,21:13:42.16,10.74,-26.37,-1034.67,2.44,2.44,-0.58,
05/25/2025,21:13:42.18,19.53,-31.74,-1038.09,3.08,0.82,-0.34,
05/25/2025,21:13:42.20,4.88,-32.23,-1029.30,1.13,1.98,0.34,
05/25/2025,21:13:42.22,9.77,-24.41,-1015.14,4.05,2.59,-0.98,
05/25/2025,21:13:42.24,9.28,-26.37,-1024.90,0.67,3.45,-1.83,
05/25/2025,21:13:42.26,15.62,-31.25,-1028.32,1.95,1.62,-1.19,
05/25/2025,21:13:42.28,-3.42,-35.16,-1019.53,2.84,3.66,0.73,
05/25/2025,21:13:42.30,17.58,-26.37,-1014.65,-0.34,3.45,2.04,
05/25/2025,21:13:42.32,23.44,-27.34,-1030.27,2.68,1.43,-1.46,
05/25/2025,21:13:42.34,21.00,-25.88,-1021.00,0.52,1.07,-0.49,
05/25/2025,21:13:42.36,18.07,-26.86,-1029.30,0.00,1.92,-2.04,
05/25/2025,21:13:42.38,16.11,-34.18,-1027.34,0.43,0.91,-0.91,
05/25/2025,21:13:42.40,15.62,-29.79,-1030.76,2.74,0.67,-2.90,
05/25/2025,21:13:42.42,0.49,-33.20,-1031.25,3.93,1.62,0.21,
05/25/2025,21:13:42.44,11.23,-30.27,-1022.46,1.13,-0.46,-1.55,
05/25/2025,21:13:42.46,9.28,-20.02,-1027.34,1.40,2.01,0.21,
05/25/2025,21:13:42.51,16.11,-23.93,-1028.32,0.55,1.98,1.22,
05/25/2025,21:13:42.53,5.86,-28.32,-1030.27,2.96,2.26,2.99,
05/25/2025,21:13:42.55,2.93,-25.39,-1025.88,3.48,2.38,1.07,
05/25/2025,21:13:42.57,11.72,-21.48,-1027.34,2.87,2.53,-1.22,
05/25/2025,21:13:42.59,8.79,-31.25,-1023.44,1.59,2.20,3.81,
05/25/2025,21:13:42.61,8.79,-33.20,-1027.83,2.71,3.26,-2.84,
05/25/2025,21:13:42.63,13.67,-36.62,-1015.62,0.55,0.46,0.61,
05/25/2025,21:13:42.65,12.21,-18.55,-1023.93,0.52,2.35,0.70,
05/25/2025,21:13:42.67,28.81,-33.69,-1018.55,3.41,0.55,0.91,
05/25/2025,21:13:42.69,10.74,-36.13,-1023.44,1.16,1.22,1.19,
05/25/2025,21:13:42.71,11.72,-35.64,-1035.16,0.06,2.96,-1.92,
05/25/2025,21:13:42.73,0.98,-22.95,-1033.20,0.95,0.95,-1.49,
05/25/2025,21:13:42.75,11.23,-29.79,-1028.81,1.13,1.59,2.07,
05/25/2025,21:13:42.77,9.77,-30.76,-1019.53,1.68,3.51,-3.38,
05/25/2025,21:13:42.79,6.84,-28.81,-1033.69,0.73,4.27,-0.61,
05/25/2025,21:13:42.81,17.58,-20.02,-1020.02,0.27,1.07,1.55,
05/25/2025,21:13:42.83,14.16,-40.04,-1027.83,2.53,0.76,-1.04,
05/25/2025,21:13:42.85,6.84,-36.13,-1016.60,1.13,4.21,1.28,
05/25/2025,21:13:42.87,4.88,-29.79,-1020.51,1.40,1.83,1.55,
05/25/2025,21:13:42.89,7.81,-26.86,-1019.04,0.64,3.75,-0.55,
05/25/2025,21:13:42.91,9.28,-24.90,-1027.34,0.18,3.48,0.85,
05/25/2025,21:13:42.93,9.28,-40.53,-1024.90,2.56,0.70,0.09,
05/25/2025,21:13:42.95,6.84,-15.62,-1033.69,1.40,2.56,-0.46,
05/25/2025,21:13:42.97,12.21,-38.09,-1015.62,1.74,1.43,-3.84,
05/25/2025,21:13:43.02,-2.44,-30.27,-1012.70,0.40,-0.09,2.32,
05/25/2025,21:13:43.04,11.72,-24.90,-1019.53,2.10,1.22,-0.18,
05/25/2025,21:13:43.06,-7.32,-21.00,-1021.00,2.56,-0.30,-0.91,
05/25/2025,21:13:43.08,21.97,-37.60,-1032.71,1.25,0.85,-0.88,
05/25/2025,21:13:43.10,0.98,-38.09,-1026.86,3.51,2.41,0.98,
05/25/2025,21:13:43.12,8.79,-37.11,-1018.55,3.54,2.41,0.18,
05/25/2025,21:13:43.14,7.32,-34.67,-1028.32,2.35,2.87,-0.88,
05/25/2025,21:13:43.16,14.65,-24.41,-1021.00,0.55,0.03,-0.73,
05/25/2025,21:13:43.18,6.84,-33.20,-1029.30,2.01,1.37,0.46,
05/25/2025,21:13:43.20,-0.98,-27.83,-1027.34,0.03,1.74,0.24,
05/25/2025,21:13:43.22,7.81,-35.16,-1031.25,0.85,0.91,-2.80,
05/25/2025,21:13:43.24,18.55,-31.74,-1031.74,0.52,3.99,1.37,
05/25/2025,21:13:43.26,10.25,-25.88,-1025.88,-0.21,1.43,0.49,
05/25/2025,21:13:43.28,10.74,-41.02,-1031.25,1.89,0.79,-0.34,
05/25/2025,21:13:43.30,-6.84,-37.60,-1028.32,1.65,2.29,-0.03,
05/25/2025,21:13:43.32,12.21,-39.55,-1023.93,0.43,1.98,1.95,
05/25/2025,21:13:43.34,3.91,-44.92,-1017.58,0.79,2.80,-1.52,
05/25/2025,21:13:43.36,8.79,-21.97,-1024.90,1.49,-0.24,-0.79,
05/25/2025,21:13:43.38,6.84,-20.02,-1035.16,2.04,-0.58,0.58,
05/25/2025,21:13:43.40,12.21,-27.83,-1014.16,2.68,0.06,-1.68,
05/25/2025,21:13:43.42,2.93,-32.23,-1019.53,1.31,1.40,-0.76,
05/25/2025,21:13:43.44,16.11,-34.18,-1022.46,2.35,3.02,-0.95,
05/25/2025,21:13:43.46,4.88,-41.02,-1025.39,0.52,-0.40,-0.98,
05/25/2025,21:13:43.48,16.60,-30.27,-1028.81,1.19,1.55,-0.06,
05/25/2025,21:13:43.53,11.72,-32.71,-1020.51,-1.04,1.19,-2.29,
05/25/2025,21:13:43.55,7.32,-18.07,-1011.23,1.46,4.24,0.00,
05/25/2025,21:13:43.57,-4.39,-30.27,-1025.39,2.01,1.95,-0.58,
05/25/2025,21:13:43.59,20.02,-33.69,-1024.41,1.37,1.19,-0.79,
05/25/2025,21:13:43.61,-11.23,-29.79,-1025.88,1.74,2.29,-1.07,
05/25/2025,21:13:43.63,7.81,-15.62,-1023.93,2.62,1.19,-1.10,
05/25/2025,21:13:43.65,1.95,-18.55,-1029.79,-0.58,1.37,0.76,
05/25/2025,21:13:43.67,8.30,-32.23,-1026.86,3.38,2.07,1.07,
05/25/2025,21:13:43.69,10.74,-21.48,-1031.25,2.44,1.52,-0.91,
05/25/2025,21:13:43.71,4.39,-33.69,-1023.93,1.62,-0.27,-2.26,
05/25/2025,21:13:43.73,-1.46,-27.34,-1025.88,2.44,3.11,0.58,
05/25/2025,21:13:59.58,-774.90,-605.47,-42.48,-5.79,3.72,23.78,
05/25/2025,21:13:59.64,-922.36,-557.13,-82.03,-13.45,-12.47,30.40,
05/25/2025,21:13:59.66,-985.35,-521.48,-106.93,-12.59,-22.74,28.84,
05/25/2025,21:13:59.68,-1004.39,-520.02,-123.05,-5.12,-23.26,23.48,
05/25/2025,21:13:59.70,-967.77,-539.06,-74.22,0.61,-6.92,0.76,
05/25/2025,21:13:59.72,-892.09,-515.14,35.64,-1.62,18.54,-12.07,
05/25/2025,21:13:59.74,-791.99,-512.21,65.43,-11.65,16.80,-17.68,
05/25/2025,21:13:59.76,-694.82,-560.55,22.95,-15.73,18.66,-15.49,
05/25/2025,21:13:59.78,-673.34,-619.63,-46.88,-15.95,19.09,-14.85,
05/25/2025,21:13:59.80,-658.69,-636.72,-86.43,-12.23,22.29,-16.46,
05/25/2025,21:13:59.82,-662.11,-657.71,-98.63,-8.93,24.12,-7.38,
05/25/2025,21:13:59.84,-697.75,-639.16,-91.31,-3.17,22.65,3.29,
05/25/2025,21:13:59.86,-723.14,-611.33,-82.03,-3.35,14.18,5.15,
05/25/2025,21:13:59.88,-738.77,-590.33,-55.66,-8.05,4.94,18.14,
05/25/2025,21:13:59.90,-834.96,-612.30,-153.32,-9.36,-2.38,25.88,
05/25/2025,21:13:59.92,-927.73,-612.30,-166.50,-4.24,7.20,19.73,
05/25/2025,21:13:59.94,-943.85,-617.68,-175.78,-1.43,11.92,10.61,
05/25/2025,21:13:59.96,-927.25,-600.10,-150.39,-0.91,13.60,5.73,
05/25/2025,21:13:59.98,-894.04,-592.77,-129.39,-0.30,13.66,4.76,
05/25/2025,21:14:00.00,-894.04,-601.07,-143.55,-6.68,17.07,1.74,
05/25/2025,21:14:00.02,-854.98,-598.63,-137.70,-14.30,17.20,-2.07,
05/25/2025,21:14:00.04,-810.55,-574.71,-138.18,-21.43,12.29,-0.70,
05/25/2025,21:14:00.06,-797.85,-559.57,-157.71,-22.50,13.87,0.46,
05/25/2025,21:14:00.08,-832.03,-560.55,-169.92,-23.75,17.13,2.38,
05/25/2025,21:14:00.10,-792.97,-549.32,-156.25,-27.65,17.16,3.87,
05/25/2025,21:14:00.15,-832.03,-525.88,-219.73,-28.41,-2.84,17.41,
05/25/2025,21:14:00.17,-852.05,-515.14,-212.40,-31.65,11.40,15.55,
05/25/2025,21:14:00.19,-836.91,-455.57,-203.61,-30.61,8.48,19.51,
05/25/2025,21:14:00.21,-848.63,-418.46,-200.20,-19.88,8.08,17.47,
05/25/2025,21:14:00.23,-863.77,-425.29,-181.64,-20.30,18.41,18.41,
05/25/2025,21:14:00.25,-930.66,-451.17,-193.36,-22.38,41.40,9.70,
05/25/2025,21:14:00.27,-893.55,-421.88,-197.27,-25.55,59.60,-9.27,
05/25/2025,21:14:00.29,-762.21,-423.34,-226.56,-12.01,30.73,-12.99,
05/25/2025,21:14:00.32,-866.70,-409.67,-226.07,-24.18,35.43,-8.48,
05/25/2025,21:14:00.34,-838.38,-438.96,-277.34,-18.26,17.04,-7.65,
05/25/2025,21:14:00.36,-869.14,-493.65,-268.07,-17.77,26.83,-15.73,
05/25/2025,21:14:00.38,-805.18,-506.35,-309.57,-22.32,23.87,-23.96,
05/25/2025,21:14:00.40,-715.82,-523.93,-278.32,-13.63,24.91,-18.54,
05/25/2025,21:14:00.42,-713.87,-516.11,-223.14,-11.98,23.66,-13.05,
05/25/2025,21:14:00.44,-764.16,-502.93,-225.59,-20.55,31.83,-15.55,
05/25/2025,21:14:00.46,-715.82,-505.37,-202.15,-22.59,25.24,-13.99,
05/25/2025,21:14:00.48,-734.86,-502.44,-218.75,-29.73,9.02,-3.87,
05/25/2025,21:14:00.50,-784.67,-553.71,-565.43,-17.96,-90.64,56.28,
05/25/2025,21:14:00.52,-853.52,-526.86,-297.85,-13.78,-14.94,24.05,
05/25/2025,21:14:00.54,-820.31,-479.00,-247.56,-15.88,-34.85,24.76,
05/25/2025,21:14:00.56,-795.90,-426.76,-235.35,-17.10,-50.37,41.95,
05/25/2025,21:14:00.58,-899.41,-466.31,-374.02,-22.77,-33.23,35.76,
05/25/2025,21:14:00.60,-890.14,-462.89,-403.81,-15.06,-0.64,24.94,
05/25/2025,21:14:00.67,-854.00,-400.88,-421.88,-27.74,49.36,-1.13,
05/25/2025,21:14:00.69,-948.24,-431.15,-451.66,-19.97,16.89,-11.40,
05/25/2025,21:14:00.71,-861.33,-429.69,-473.14,-8.81,22.65,-16.95,
05/25/2025,21:14:00.73,-841.31,-431.15,-458.98,-9.85,27.04,-13.96,
05/25/2025,21:14:00.75,-848.14,-486.33,-533.69,-14.21,20.43,-9.94,
05/25/2025,21:14:00.77,-891.11,-516.11,-552.25,-6.74,26.01,-7.65,
05/25/2025,21:14:00.79,-857.91,-490.23,-531.25,-2.93,31.43,-9.21,
05/25/2025,21:14:00.81,-848.14,-514.16,-539.55,-2.13,25.37,-4.76,
05/25/2025,21:14:00.83,-857.42,-521.48,-535.16,1.37,32.07,-6.71,
05/25/2025,21:14:00.85,-797.36,-505.37,-470.70,-1.77,38.32,-14.57,
05/25/2025,21:14:00.87,-762.21,-505.86,-485.35,-5.21,36.46,-18.14,
05/25/2025,21:14:00.89,-744.14,-502.93,-445.80,-6.71,49.73,-24.73,
05/25/2025,21:14:00.91,-722.66,-503.91,-439.45,-9.27,51.52,-22.07,
05/25/2025,21:14:00.93,-730.47,-526.86,-433.59,-8.38,33.69,-20.61,
05/25/2025,21:14:00.95,-758.79,-515.14,-433.11,-7.13,18.45,-17.87,
05/25/2025,21:14:00.98,-733.89,-556.15,-498.54,-7.47,20.12,-16.40,
05/25/2025,21:14:01.00,-692.87,-568.36,-513.18,-10.00,16.95,-15.12,
05/25/2025,21:14:01.02,-696.29,-558.11,-511.72,-16.37,10.49,-8.72,
05/25/2025,21:14:01.04,-683.59,-536.13,-520.51,-31.80,-12.47,-0.70,
05/25/2025,21:14:01.06,-730.96,-564.45,-646.97,-27.16,-15.55,7.56,
05/25/2025,21:14:01.08,-747.07,-541.99,-671.39,-4.88,-12.65,7.87,
05/25/2025,21:14:01.10,-751.46,-524.41,-664.55,5.95,-8.87,6.55,
05/25/2025,21:14:01.12,-717.77,-502.93,-640.62,16.71,-12.59,5.76,
05/25/2025,21:14:01.17,-726.56,-441.41,-612.30,24.18,-9.91,14.09,
05/25/2025,21:14:01.19,-769.04,-412.60,-578.61,23.08,-11.49,13.75,
05/25/2025,21:14:01.21,-766.11,-382.32,-552.73,15.98,-6.95,11.07,
05/25/2025,21:14:01.23,-763.18,-353.52,-497.56,13.26,-4.94,10.82,
05/25/2025,21:14:01.25,-796.39,-326.66,-430.18,12.07,-0.85,10.64,
05/25/2025,21:14:01.27,-810.55,-345.21,-376.95,15.95,3.23,6.98,
05/25/2025,21:14:01.29,-875.00,-363.28,-344.24,15.43,13.96,0.52,
05/25/2025,21:14:01.31,-904.30,-390.62,-335.94,8.84,11.59,-8.81,
05/25/2025,21:14:01.33,-891.11,-427.73,-385.25,7.10,11.68,-14.21,
05/25/2025,21:14:01.35,-894.53,-450.68,-501.46,12.77,16.52,-19.24,
05/25/2025,21:14:01.37,-795.90,-485.84,-230.96,-33.54,-17.29,2.93,
05/25/2025,21:14:01.39,-895.51,-565.92,-550.78,27.84,8.38,-17.90,
05/25/2025,21:14:01.41,-923.83,-589.36,-156.25,4.85,6.46,-21.86,
05/25/2025,21:14:01.43,-808.59,-588.38,-469.73,-10.55,-7.16,-22.23,
05/25/2025,21:14:01.46,-695.80,-574.22,-515.14,1.62,-2.07,-22.93,
05/25/2025,21:14:01.48,-609.38,-538.09,-488.77,-0.03,0.61,-16.59,
05/25/2025,21:14:01.50,-571.29,-548.83,-566.89,4.76,0.91,-11.22,
05/25/2025,21:14:01.52,-609.86,-521.97,-453.61,19.54,-1.37,4.88,
05/25/2025,21:14:01.54,-673.83,-532.71,-449.71,15.03,-0.46,7.13,
05/25/2025,21:14:01.56,-747.07,-513.18,-440.43,14.88,2.99,9.70,
05/25/2025,21:14:01.58,-779.30,-524.41,-424.32,13.84,5.73,9.27,
05/25/2025,21:14:01.60,-812.01,-499.02,-449.71,11.22,8.02,5.18,
05/25/2025,21:14:01.62,-790.53,-500.49,-473.63,9.02,9.33,-2.93,
05/25/2025,21:14:01.64,-770.02,-482.91,-447.27,7.01,15.85,-4.09,
05/25/2025,21:14:01.69,-740.23,-480.47,-495.61,-1.86,10.67,-11.80,
05/25/2025,21:14:01.71,-715.82,-510.74,-486.33,-0.61,16.28,-9.12,
05/25/2025,21:14:01.73,-694.82,-513.67,-456.05,-0.76,17.56,-10.88,
05/25/2025,21:14:01.75,-621.58,-429.20,-328.61,-15.85,-20.88,3.75,
05/25/2025,21:14:01.77,-635.25,-507.32,-440.43,-24.39,-25.00,29.63,
05/25/2025,21:14:01.79,-725.10,-500.49,-435.55,-16.71,-25.64,35.34,
05/25/2025,21:14:01.81,-739.75,-496.09,-461.43,-15.15,-13.63,28.38,
05/25/2025,21:14:01.83,-695.31,-473.14,-499.51,-3.60,-4.63,20.12,
05/25/2025,21:14:01.85,-738.77,-493.16,-477.05,3.90,-12.71,5.91,
05/25/2025,21:14:01.87,-750.00,-511.23,-498.05,6.46,-15.21,-2.23,
05/25/2025,21:14:01.89,-731.93,-535.16,-538.09,17.74,-7.65,-4.15,
05/25/2025,21:14:01.91,-719.73,-527.34,-486.82,18.84,6.31,-4.33,
05/25/2025,21:14:01.93,-718.75,-527.34,-461.43,18.32,13.41,-2.44,
05/25/2025,21:14:01.95,-751.95,-529.79,-493.16,14.18,15.40,0.58,
05/25/2025,21:14:01.97,-792.48,-535.16,-497.56,14.76,12.07,7.84,
05/25/2025,21:14:01.99,-797.36,-516.60,-540.04,12.74,12.71,15.24,
05/25/2025,21:14:02.01,-830.08,-572.75,-639.16,18.99,19.70,24.45,
05/25/2025,21:14:02.03,-822.27,-534.67,-564.45,27.26,29.66,15.67,
05/25/2025,21:14:02.05,-744.63,-486.33,-508.79,23.08,32.80,19.02,
05/25/2025,21:14:02.07,-791.99,-484.38,-452.15,21.31,32.16,33.38,
05/25/2025,21:14:02.09,-772.95,-511.72,-418.46,11.19,32.99,36.19,
05/25/2025,21:14:02.11,-811.04,-515.62,-460.45,3.93,34.57,16.01,
05/25/2025,21:14:02.13,-766.11,-480.47,-505.37,-1.80,23.63,1.77,
05/25/2025,21:14:02.15,-764.65,-471.19,-584.96,9.48,6.34,2.90,
05/25/2025,21:14:02.20,-820.31,-423.83,-489.75,31.25,-12.53,17.35,
05/25/2025,21:14:02.22,-855.96,-403.81,-505.86,25.12,-15.12,17.93,
05/25/2025,21:14:02.24,-903.81,-393.07,-459.47,23.41,-11.65,14.82,
05/25/2025,21:14:02.26,-878.91,-376.95,-424.80,18.23,-6.40,8.51,
05/25/2025,21:14:02.28,-849.12,-388.67,-383.30,15.73,-3.32,1.22,
05/25/2025,21:14:02.30,-831.54,-358.40,-384.77,13.51,-8.26,4.33,
05/25/2025,21:14:02.32,-843.75,-373.54,-354.98,14.70,-8.02,-0.58,
05/25/2025,21:14:02.34,-840.82,-396.48,-369.14,10.79,-13.99,-4.91,
05/25/2025,21:14:02.36,-839.84,-410.16,-371.58,13.66,-19.05,-3.51,
05/25/2025,21:14:02.38,-815.92,-447.27,-341.80,14.54,-20.58,-9.30,
05/25/2025,21:14:02.40,-787.60,-458.98,-320.80,13.84,-21.43,-10.46,
05/25/2025,21:14:02.42,-833.50,-511.23,-327.15,3.02,-19.97,-11.04,
05/25/2025,21:14:02.44,-811.52,-546.39,-337.89,1.34,-27.68,-17.35,
05/25/2025,21:14:02.46,-822.27,-528.81,-374.02,3.96,-23.45,-19.57,
05/25/2025,21:14:02.48,-803.71,-526.37,-379.39,10.61,-13.38,-21.77,
05/25/2025,21:14:02.50,-784.18,-522.95,-374.51,6.31,-4.60,-20.55,
05/25/2025,21:14:02.52,-762.21,-504.39,-383.30,-0.76,5.49,-17.93,
05/25/2025,21:14:02.54,-756.84,-497.56,-391.11,-5.73,1.19,-15.00,
05/25/2025,21:14:02.56,-741.70,-509.28,-410.64,-2.32,-0.15,-8.17,
05/25/2025,21:14:02.58,-753.91,-483.89,-382.32,2.84,-7.93,-5.98,
05/25/2025,21:14:02.60,-760.74,-479.00,-349.12,5.24,-7.77,-5.43,
05/25/2025,21:14:02.62,-791.02,-514.65,-357.91,4.18,-0.64,-5.52,
05/25/2025,21:14:02.64,-783.69,-500.00,-314.94,-0.43,3.81,-12.16,
05/25/2025,21:14:02.66,-766.11,-502.93,-332.03,-0.79,-4.27,-12.96,
05/25/2025,21:14:02.71,-654.30,-537.60,-361.33,5.37,26.59,4.54,
05/25/2025,21:14:02.73,-554.69,-511.72,-315.92,18.57,57.23,29.79,
05/25/2025,21:14:02.75,-662.11,-482.91,-235.35,6.04,72.84,38.63,
05/25/2025,21:14:02.77,-733.40,-403.32,-114.75,-1.13,81.31,43.32,
05/25/2025,21:14:02.79,-774.90,-404.79,-176.27,-6.37,-11.62,33.45,
05/25/2025,21:14:02.81,-769.53,-355.96,-275.88,-6.55,23.63,20.64,
05/25/2025,21:14:02.83,-905.27,-379.88,-349.12,-8.20,19.48,7.99,
05/25/2025,21:14:02.85,-929.20,-423.83,-467.29,-17.87,-0.76,-15.64,
05/25/2025,21:14:02.87,-899.41,-466.31,-557.62,-20.24,-34.21,-17.56,
05/25/2025,21:14:02.89,-902.34,-555.66,-626.46,-22.77,-16.62,-11.55,
05/25/2025,21:14:02.91,-945.80,-515.62,-569.82,-19.15,4.51,-15.27,
05/25/2025,21:14:02.93,-933.59,-599.61,-548.83,-24.36,9.36,-29.33,
05/25/2025,21:14:02.95,-851.56,-604.00,-474.61,-37.53,-21.31,-23.29,
05/25/2025,21:14:02.97,-835.45,-637.21,-371.09,-60.82,-71.16,-29.91,
05/25/2025,21:14:02.99,-835.45,-572.27,-401.37,-67.20,-69.36,-43.78,
05/25/2025,21:14:03.01,-876.46,-569.34,-525.88,-60.00,-43.72,-43.51,
05/25/2025,21:14:03.03,-875.98,-503.42,-613.28,-33.93,-13.72,-43.23,
05/25/2025,21:14:03.05,-794.92,-509.28,-635.74,11.10,53.17,-33.72,
05/25/2025,21:14:03.07,-708.50,-493.16,-543.46,14.70,70.82,-14.18,
05/25/2025,21:14:03.09,-682.13,-529.79,-467.77,2.65,35.98,-4.02,
05/25/2025,21:14:03.11,-718.75,-547.85,-502.44,-9.54,37.50,0.34,
05/25/2025,21:14:03.13,-777.83,-589.84,-587.40,-12.41,18.78,-8.29,
05/25/2025,21:14:03.15,-750.98,-623.05,-700.68,-0.73,29.45,-21.46,
05/25/2025,21:14:03.17,-749.02,-636.72,-690.43,20.21,40.18,-23.81,
05/25/2025,21:14:03.22,-753.42,-615.72,-522.46,40.64,71.86,-18.41,
05/25/2025,21:14:03.24,-669.92,-583.50,-564.45,-0.85,67.29,-17.13,
05/25/2025,21:14:03.26,-581.05,-533.20,-480.96,-34.12,94.82,-2.23,
05/25/2025,21:14:03.28,-631.35,-507.32,-439.94,-61.55,90.00,1.55,
05/25/2025,21:14:03.30,-567.87,-325.20,-49.80,-95.91,26.89,32.96,
05/25/2025,21:14:03.32,-437.50,-416.99,-783.20,-79.91,118.26,17.07,
05/25/2025,21:14:03.34,100.10,-159.67,-446.29,-139.88,118.66,47.96,
05/25/2025,21:14:03.36,-210.94,-373.05,-644.04,-173.48,93.23,136.25,
05/25/2025,21:14:03.38,-348.14,-300.29,-1034.18,-116.98,27.50,196.49,
05/25/2025,21:14:03.40,-767.09,-335.45,-1083.50,-5.64,66.77,185.06,
05/25/2025,21:14:03.42,-587.40,-206.05,-613.28,26.55,145.85,161.28,
05/25/2025,21:14:03.44,-640.14,-183.11,-722.66,-19.27,22.41,171.28,
05/25/2025,21:14:03.46,-894.53,-158.20,-955.08,0.43,46.49,114.70,
05/25/2025,21:14:03.48,-588.38,-111.33,-847.17,15.43,80.58,119.05,
05/25/2025,21:14:03.50,-643.55,-85.94,-929.20,48.45,54.02,136.34,
05/25/2025,21:14:03.52,-713.87,-63.96,-834.47,78.38,59.97,123.81,
05/25/2025,21:14:03.54,-879.39,-118.65,-684.08,62.44,58.20,96.46,
05/25/2025,21:14:03.56,-802.25,-98.14,-781.25,51.59,45.95,58.99,
05/25/2025,21:14:03.58,-594.73,-123.54,-816.89,53.45,58.87,37.71,
05/25/2025,21:14:03.60,-500.98,-113.28,-1003.42,51.04,64.91,36.98,
05/25/2025,21:14:03.62,-509.28,-104.00,-827.15,60.70,63.11,45.43,
05/25/2025,21:14:03.64,-505.86,-104.49,-806.64,61.10,61.43,39.57,
05/25/2025,21:14:03.66,-444.34,-109.38,-728.03,36.62,25.58,59.66,
05/25/2025,21:14:03.68,-473.63,-138.18,-961.91,31.52,38.11,45.91,
05/25/2025,21:14:03.73,-487.79,-116.21,-815.43,44.79,28.60,41.49,
05/25/2025,21:14:03.75,-572.27,-175.78,-683.11,34.33,-11.49,27.47,
05/25/2025,21:14:03.77,-397.46,-169.92,-708.50,27.87,-21.68,20.30,
05/25/2025,21:14:03.79,-455.57,-145.02,-828.61,20.61,-12.77,22.80,
05/25/2025,21:14:03.81,-525.88,-198.73,-834.47,22.99,18.99,30.34,
05/25/2025,21:14:03.83,-755.37,-213.38,-958.98,48.51,46.22,12.23,
05/25/2025,21:14:03.85,-610.35,-131.84,-719.24,68.66,71.98,-11.74,
05/25/2025,21:14:03.87,-476.07,-166.02,-609.86,23.93,77.65,-3.96,
05/25/2025,21:14:03.89,-480.96,-217.29,-919.92,20.61,49.48,-1.52,
05/25/2025,21:14:03.91,-494.63,-265.62,-991.21,20.21,42.77,-17.77,
05/25/2025,21:14:03.93,-528.81,-274.90,-925.29,13.02,29.30,-28.84,
05/25/2025,21:14:03.95,-358.89,-265.62,-938.96,1.07,22.35,-44.48,
05/25/2025,21:14:03.97,-340.33,-379.88,-1271.48,-20.61,54.36,-32.53,
05/25/2025,21:14:03.99,-417.48,-233.40,-765.62,-6.16,-13.41,-55.88,
05/25/2025,21:14:04.01,-220.21,-272.95,-734.86,66.49,42.68,-41.34,
05/25/2025,21:14:04.03,-322.27,-390.62,-882.32,17.87,9.54,-60.24,
05/25/2025,21:14:04.05,-313.48,-308.59,-553.22,-30.52,70.03,-46.55,
05/25/2025,21:14:04.07,-255.86,-363.28,-973.63,10.27,62.77,-44.18,
05/25/2025,21:14:04.09,-151.37,-390.62,-863.77,19.85,83.63,-85.85,
05/25/2025,21:14:04.11,-100.10,-241.21,-877.93,101.80,102.99,-102.23,
05/25/2025,21:14:04.13,-55.18,-97.66,-936.52,171.52,-106.80,-51.62,
05/25/2025,21:14:04.15,-263.67,-229.00,-238.77,97.29,-26.22,-245.34,
05/25/2025,21:14:04.17,-117.68,-481.45,-887.21,53.29,42.44,-236.46,
05/25/2025,21:14:04.19,45.90,-303.71,-733.89,36.10,84.73,-197.16,
05/25/2025,21:14:04.25,106.93,-648.44,-957.52,46.46,-58.14,-68.41,
05/25/2025,21:14:04.27,117.19,-577.15,-915.04,10.52,-200.40,-92.44,
05/25/2025,21:14:04.29,-67.87,-646.97,-864.75,29.05,-236.49,-106.77,
05/25/2025,21:14:04.31,-92.29,-600.10,-1007.32,29.21,-286.52,-118.29,
05/25/2025,21:14:04.33,-425.78,-402.83,-1032.71,34.73,-309.54,-308.93,
05/25/2025,21:14:04.35,-110.84,-333.01,-752.44,99.30,-534.66,-510.52,
05/25/2025,21:14:04.37,-232.91,-357.91,-859.86,37.38,-446.83,-448.81,
05/25/2025,21:14:04.39,-76.17,-600.59,-639.65,-13.23,-384.88,-410.27,
05/25/2025,21:14:04.41,43.46,-716.80,-500.49,-93.41,-148.90,-291.01,
05/25/2025,21:14:04.43,-76.66,-767.58,-625.49,-136.16,26.16,-175.37,
05/25/2025,21:14:04.45,33.69,-745.61,-765.62,-115.27,57.77,-124.15,
05/25/2025,21:14:04.47,-6.84,-716.80,-915.04,-84.05,81.89,-88.05,
05/25/2025,21:14:04.49,-47.85,-653.81,-851.56,-80.30,36.74,-53.63,
05/25/2025,21:14:04.51,27.34,-622.56,-900.39,-64.45,38.57,-40.82,
05/25/2025,21:14:04.53,34.67,-612.79,-853.03,-46.37,19.97,-32.62,
05/25/2025,21:14:04.55,-1.46,-598.63,-849.61,-26.62,23.45,-16.40,
05/25/2025,21:14:04.57,-149.90,-370.12,-775.88,1.49,-5.61,-26.74,
05/25/2025,21:14:04.59,72.75,-559.08,-790.04,-0.82,64.48,-55.03,
05/25/2025,21:14:04.61,107.42,-547.85,-835.45,-16.65,47.93,-44.70,
05/25/2025,21:14:04.63,38.09,-517.09,-738.28,-37.71,30.27,-42.04,
05/25/2025,21:14:04.65,38.57,-504.39,-740.72,-44.54,30.58,-39.15,
05/25/2025,21:14:04.67,33.69,-588.38,-1085.94,-102.44,-170.30,-66.71,
05/25/2025,21:14:04.69,-23.93,-606.45,-1086.91,-110.06,-228.72,-105.40,
05/25/2025,21:14:04.71,-107.42,-451.17,-598.63,-97.41,-297.93,-115.30,
05/25/2025,21:14:04.76,-121.09,-494.14,-967.29,-51.43,-59.70,-70.15,
05/25/2025,21:14:04.78,-104.49,-496.58,-939.45,-59.85,-54.76,-70.06,
05/25/2025,21:14:04.80,-135.74,-498.05,-924.80,-39.91,-15.55,-73.54,
05/25/2025,21:14:04.82,-172.85,-428.71,-958.98,-17.26,-4.97,-80.85,
05/25/2025,21:14:04.84,-152.83,-406.74,-930.66,-0.64,-6.19,-81.83,
05/25/2025,21:14:04.86,-126.46,-374.51,-918.95,-7.50,0.37,-74.76,
05/25/2025,21:14:04.88,-110.35,-372.56,-935.06,-11.34,-1.86,-65.24,
05/25/2025,21:14:04.90,-114.26,-250.00,-998.54,-16.92,-24.73,-28.60,
05/25/2025,21:14:04.92,-177.25,-263.18,-937.50,-19.88,-52.16,-18.41,
05/25/2025,21:14:04.94,-165.53,-337.40,-949.22,-23.63,-65.98,-6.28,
05/25/2025,21:14:04.96,-282.23,-429.20,-1029.30,28.17,-47.87,-39.85,
05/25/2025,21:14:04.98,-18.55,-357.91,-865.72,22.04,-56.55,-58.66,
05/25/2025,21:14:05.00,-218.75,-406.25,-876.95,-5.88,-68.02,-80.98,
05/25/2025,21:14:05.02,-306.15,-441.41,-913.57,-17.96,-87.53,-66.16,
05/25/2025,21:14:05.04,-94.24,-344.24,-877.44,30.98,-111.71,-80.46,
05/25/2025,21:14:05.06,-215.82,-436.04,-841.31,-14.57,-84.21,-58.38,
05/25/2025,21:14:05.08,-244.63,-431.15,-957.52,9.51,-82.80,-65.85,
05/25/2025,21:14:05.10,-344.24,-435.06,-806.64,-0.64,-65.34,-57.84,
05/25/2025,21:14:05.12,-229.00,-411.62,-875.00,16.46,-95.70,-34.82,
05/25/2025,21:14:05.15,-257.81,-451.17,-946.29,-2.62,-50.40,-33.17,
05/25/2025,21:14:05.17,-434.57,-472.66,-1066.41,-33.81,-26.86,-38.29,
05/25/2025,21:14:05.19,-337.40,-409.67,-737.30,-41.59,21.31,-20.49,
05/25/2025,21:14:05.21,-165.04,-320.80,-846.68,-66.40,19.02,-21.62,
05/25/2025,21:14:05.23,-281.74,-454.59,-895.51,-68.96,18.87,-22.01,
05/25/2025,21:14:05.27,-290.04,-306.64,-1008.79,-44.76,0.06,16.43,
05/25/2025,21:14:05.30,-341.31,-394.04,-962.40,-37.16,18.29,13.29,
05/25/2025,21:14:05.32,-251.95,-327.15,-1032.23,-12.26,16.65,18.66,
05/25/2025,21:14:05.34,-394.53,-333.01,-887.70,-32.59,-16.25,8.51,
05/25/2025,21:14:05.36,-332.52,-313.48,-1008.30,-13.38,-12.29,-8.63,
05/25/2025,21:14:05.38,-353.52,-312.01,-939.45,-9.24,-2.96,-13.11,
05/25/2025,21:14:05.40,-308.59,-286.13,-872.56,-28.29,-15.18,-9.70,
05/25/2025,21:14:05.42,-347.17,-317.38,-1047.36,-15.70,14.45,-9.82,
05/25/2025,21:14:05.44,-330.08,-304.69,-864.26,-11.52,13.38,-15.43,
05/25/2025,21:14:05.46,-299.80,-263.67,-919.43,-25.03,9.18,-18.20,
05/25/2025,21:14:05.48,-290.04,-273.93,-981.45,-15.27,35.67,-16.80,
05/25/2025,21:14:05.50,-290.53,-254.88,-845.21,-23.63,10.91,-4.54,
05/25/2025,21:14:05.52,-304.69,-263.67,-927.25,-34.24,-3.17,-3.23,
05/25/2025,21:14:05.54,-241.21,-251.95,-860.84,-48.54,-9.66,4.12,
05/25/2025,21:14:05.56,-313.96,-250.49,-1022.95,-48.63,-2.68,27.71,
05/25/2025,21:14:05.58,-354.00,-235.35,-1000.98,-26.68,-3.08,4.82,
05/25/2025,21:14:05.60,-318.36,-232.42,-1001.95,-16.46,-7.62,-4.66,
05/25/2025,21:14:05.62,-288.57,-222.66,-911.13,-10.67,-11.77,-9.54,
05/25/2025,21:14:05.64,-339.84,-249.51,-1080.57,3.54,12.35,-25.79,
05/25/2025,21:14:05.66,-282.23,-217.29,-939.94,32.65,47.77,-55.98,
05/25/2025,21:14:05.68,-245.61,-234.38,-899.41,27.44,6.49,-43.41,
05/25/2025,21:14:05.70,-277.83,-252.44,-961.91,28.72,3.20,-29.63,
05/25/2025,21:14:05.72,-311.04,-261.72,-964.84,12.26,13.41,-35.24,
05/25/2025,21:14:05.74,-282.71,-251.95,-919.43,16.13,6.16,-20.82,
05/25/2025,21:14:05.79,-263.67,-254.39,-946.78,-6.59,-3.93,-18.35,
05/25/2025,21:14:05.81,-289.55,-265.14,-979.00,-4.27,-14.88,-18.69,
05/25/2025,21:14:05.83,-266.11,-276.37,-939.45,-2.68,-0.34,-24.36,
05/25/2025,21:14:05.85,-271.00,-272.46,-969.73,-2.96,15.09,-22.77,
05/25/2025,21:14:05.87,-298.83,-271.48,-972.17,3.96,37.53,-14.91,
05/25/2025,21:14:05.89,-276.86,-267.09,-929.69,1.80,22.96,-16.43,
05/25/2025,21:14:05.91,-230.96,-263.67,-933.11,4.02,20.91,-16.62,
05/25/2025,21:14:05.93,-248.05,-273.93,-954.10,7.20,14.94,-12.10,
05/25/2025,21:14:05.95,-221.19,-293.95,-959.47,4.51,17.99,-3.84,
05/25/2025,21:14:05.97,-233.89,-297.36,-930.66,-0.49,6.59,1.77,
05/25/2025,21:14:05.99,-239.75,-287.11,-986.82,1.83,-5.85,4.85,
05/25/2025,21:14:06.01,-271.97,-284.67,-959.96,5.46,5.67,3.72,
05/25/2025,21:14:06.03,-233.40,-291.02,-965.82,5.82,4.57,-0.24,
05/25/2025,21:14:06.05,-253.42,-276.86,-943.85,5.98,16.52,-5.00,
05/25/2025,21:14:06.07,-230.96,-306.64,-960.94,9.45,16.37,-7.50,
05/25/2025,21:14:06.09,-242.68,-276.37,-962.89,8.35,19.70,1.04,
05/25/2025,21:14:06.11,-206.05,-289.06,-938.48,8.02,13.45,0.55,
05/25/2025,21:14:06.13,-193.85,-298.34,-922.85,3.87,27.59,1.86,
05/25/2025,21:14:06.15,-208.98,-295.41,-958.98,1.98,18.75,1.52,
05/25/2025,21:14:06.17,-199.71,-287.11,-957.03,2.50,10.18,-3.02,
05/25/2025,21:14:06.19,-184.08,-296.39,-958.98,3.93,26.89,-5.09,
05/25/2025,21:14:06.21,-198.24,-291.50,-963.38,3.69,35.67,-12.13,
05/25/2025,21:14:06.23,-171.88,-293.95,-944.82,3.60,26.71,-7.68,
05/25/2025,21:14:06.25,-168.95,-301.27,-984.86,-2.71,35.61,-7.20,
05/25/2025,21:14:06.30,-115.23,-293.46,-991.21,1.31,48.57,-7.77,
05/25/2025,21:14:06.32,-125.49,-284.67,-968.75,0.85,54.21,-11.13,
05/25/2025,21:14:06.34,-100.59,-290.53,-985.84,3.29,39.91,-5.03,
05/25/2025,21:14:06.36,-75.68,-302.73,-970.70,1.31,58.93,-7.65,
05/25/2025,21:14:06.38,-53.22,-291.99,-972.66,3.93,48.26,-5.70,
05/25/2025,21:14:06.40,-1.46,-286.62,-990.23,6.62,40.82,-3.63,
05/25/2025,21:14:06.42,-28.81,-309.08,-964.84,4.82,60.64,3.17,
05/25/2025,21:14:06.44,-4.88,-301.27,-947.75,5.67,43.57,4.09,
05/25/2025,21:14:06.46,3.91,-288.57,-1000.98,5.79,34.88,4.85,
05/25/2025,21:14:06.48,-3.91,-299.32,-966.31,3.69,29.02,-1.49,
05/25/2025,21:14:06.50,18.07,-299.32,-1003.91,2.20,18.78,-7.20,
05/25/2025,21:14:06.52,11.72,-307.13,-978.03,-1.52,19.85,-5.95,
05/25/2025,21:14:06.54,37.11,-304.69,-1000.49,2.20,17.26,-2.26,
05/25/2025,21:14:06.56,26.37,-312.99,-986.82,1.43,22.96,-3.05,
05/25/2025,21:14:06.58,39.55,-319.34,-1016.60,5.18,9.12,-0.98,
05/25/2025,21:14:06.60,62.99,-314.94,-972.17,7.10,25.37,-6.98,
05/25/2025,21:14:06.62,56.64,-313.96,-965.33,5.67,14.94,-4.91,
05/25/2025,21:14:06.64,58.11,-318.85,-995.61,5.95,21.25,-3.87,
05/25/2025,21:14:06.66,79.10,-288.09,-954.10,1.13,37.62,-2.84,
05/25/2025,21:14:06.68,84.96,-313.96,-967.29,1.01,26.65,-0.03,
05/25/2025,21:14:06.70,89.84,-299.32,-956.05,1.65,4.18,3.41,
05/25/2025,21:14:06.72,74.71,-303.22,-973.14,2.29,-3.48,-0.21,
05/25/2025,21:14:06.74,99.61,-317.38,-997.07,1.37,24.76,-1.92,
05/25/2025,21:14:06.76,99.61,-307.62,-955.57,0.30,25.98,-5.06,
05/25/2025,21:14:06.81,122.56,-316.89,-967.77,-2.13,28.08,-1.40,
05/25/2025,21:14:06.83,117.68,-304.20,-977.05,-1.13,23.05,4.02,
05/25/2025,21:14:06.85,133.79,-303.22,-1002.93,0.27,25.73,-1.43,
05/25/2025,21:14:06.87,142.09,-301.27,-969.73,-3.11,36.28,4.42,
05/25/2025,21:14:06.89,156.74,-290.04,-961.91,-0.37,33.08,9.18,
05/25/2025,21:14:06.91,180.18,-293.95,-969.73,-1.04,30.21,16.89,
05/25/2025,21:14:06.93,208.50,-289.55,-999.51,-2.29,68.57,26.10,
05/25/2025,21:14:06.95,207.52,-305.18,-923.34,-6.62,85.98,34.76,
05/25/2025,21:14:06.97,178.71,-306.64,-964.84,-2.04,54.24,32.13,
05/25/2025,21:14:06.99,239.75,-338.87,-1015.14,9.15,98.38,37.38,
05/25/2025,21:14:07.01,364.26,-275.39,-1205.08,43.66,171.40,50.34,
05/25/2025,21:14:07.03,253.42,-338.87,-775.88,73.90,238.17,52.87,
05/25/2025,21:14:07.05,352.54,-351.56,-718.26,60.52,164.02,52.99,
05/25/2025,21:14:07.07,421.88,-374.51,-928.71,63.63,173.81,49.30,
05/25/2025,21:14:07.09,417.48,-485.35,-1135.74,62.44,186.55,57.68,
05/25/2025,21:14:07.11,416.02,-416.02,-616.70,61.52,234.12,49.02,
05/25/2025,21:14:07.13,546.39,-444.34,-500.00,39.24,114.66,41.01,
05/25/2025,21:14:07.15,521.97,-536.13,-828.12,44.42,112.62,21.83,
05/25/2025,21:14:07.17,615.23,-520.02,-561.52,33.63,119.27,13.20,
05/25/2025,21:14:07.19,623.54,-522.46,-570.80,16.98,40.18,4.02,
05/25/2025,21:14:07.21,583.01,-513.18,-834.47,21.80,47.29,-1.89,
05/25/2025,21:14:07.23,652.83,-500.00,-611.33,47.38,140.09,-6.40,
05/25/2025,21:14:07.25,676.27,-502.93,-457.03,30.88,82.26,-3.35,
05/25/2025,21:14:07.27,715.33,-504.88,-435.06,11.59,0.30,5.82,
05/25/2025,21:14:07.32,671.39,-494.63,-504.39,-8.11,-14.88,-0.76,
05/25/2025,21:14:07.35,704.59,-507.32,-416.99,-12.04,-49.63,3.11,
05/25/2025,21:14:07.37,835.45,-376.46,-461.91,-43.29,-149.73,24.05,
05/25/2025,21:14:07.39,578.12,-412.60,-886.72,-67.04,-100.55,82.16,
05/25/2025,21:14:07.41,577.64,-469.24,-555.66,-36.62,11.37,59.42,
05/25/2025,21:14:07.43,411.62,-656.74,-698.73,-42.04,-33.41,50.15,
05/25/2025,21:14:07.45,400.39,-733.89,-697.27,-45.43,-24.82,33.29,
05/25/2025,21:14:07.47,561.04,-501.95,-663.09,-31.89,54.63,18.11,
05/25/2025,21:14:07.49,555.66,-579.59,-564.45,-50.03,36.65,8.26,
05/25/2025,21:14:07.51,564.45,-475.59,-622.07,-51.34,-17.99,-1.07,
05/25/2025,21:14:07.53,583.01,-498.05,-751.46,-44.15,-81.68,-7.41,
05/25/2025,21:14:07.55,665.53,-458.01,-656.25,-22.20,-190.67,5.46,
05/25/2025,21:14:07.57,390.14,-458.98,-809.08,-39.09,-302.71,0.58,
05/25/2025,21:14:07.59,319.34,-499.02,-917.48,-33.45,-226.62,-15.18,
05/25/2025,21:14:07.61,259.28,-504.39,-893.07,-21.68,-179.30,-15.18,
05/25/2025,21:14:07.63,232.91,-452.64,-858.89,-10.27,-194.85,-16.19,
05/25/2025,21:14:07.65,189.94,-473.14,-940.92,-8.17,-175.34,-12.35,
05/25/2025,21:14:07.67,80.08,-457.03,-922.85,-1.25,-139.21,-16.68,
05/25/2025,21:14:07.69,127.44,-433.59,-936.52,-11.77,-139.39,-29.27,
05/25/2025,21:14:07.71,128.91,-437.50,-954.59,-26.52,-127.10,-20.21,
05/25/2025,21:14:07.73,70.80,-427.25,-977.54,-18.90,-91.83,-17.96,
05/25/2025,21:14:07.75,94.24,-383.79,-900.39,-21.40,-63.45,-6.43,
05/25/2025,21:14:07.77,61.52,-411.62,-1018.55,-12.65,-24.51,12.26,
05/25/2025,21:14:07.83,-12.70,-437.99,-904.30,-4.57,11.83,41.59,
05/25/2025,21:14:07.85,-51.76,-417.97,-933.11,-0.91,0.85,28.05,
05/25/2025,21:14:07.87,33.69,-416.99,-914.06,4.12,7.53,19.12,
05/25/2025,21:14:07.89,22.95,-426.27,-962.89,8.90,24.18,13.93,
05/25/2025,21:14:07.91,73.24,-411.13,-934.57,5.34,30.70,16.01,
05/25/2025,21:14:07.93,57.62,-392.58,-906.74,5.85,28.54,12.23,
05/25/2025,21:14:07.95,11.72,-424.80,-1040.04,10.88,28.41,17.26,
05/25/2025,21:14:07.97,54.20,-413.57,-948.24,8.17,80.30,16.25,
05/25/2025,21:14:07.99,51.27,-401.37,-947.27,16.16,63.69,10.98,
05/25/2025,21:14:08.01,22.95,-449.71,-974.12,39.05,-24.66,5.40,
05/25/2025,21:14:08.03,86.43,-439.45,-948.73,53.69,-38.81,4.85,
05/25/2025,21:14:08.05,68.36,-458.01,-870.12,31.68,32.84,8.41,
05/25/2025,21:14:08.07,48.34,-476.07,-893.55,33.38,-4.30,6.16,
05/25/2025,21:14:08.09,41.02,-499.02,-911.62,38.26,-57.87,11.16,
05/25/2025,21:14:08.11,25.88,-488.77,-849.61,45.73,-100.67,19.54,
05/25/2025,21:14:08.13,-26.37,-530.76,-924.32,55.40,-154.36,22.71,
05/25/2025,21:14:08.15,-95.70,-505.37,-845.70,67.26,-184.66,26.65,
05/25/2025,21:14:08.17,-110.84,-552.73,-800.29,68.02,-191.25,29.15,
05/25/2025,21:14:08.19,-149.90,-377.44,-742.19,67.59,-230.00,25.52,
05/25/2025,21:14:08.21,-384.77,-558.59,-663.57,65.91,-239.12,-3.14,
05/25/2025,21:14:08.23,-368.16,-548.83,-729.49,8.05,-266.10,-22.07,
05/25/2025,21:14:08.25,-379.88,-610.35,-839.36,-30.91,-229.88,-16.83,
05/25/2025,21:14:08.27,-477.05,-524.90,-686.04,-47.20,-184.79,-27.16,
05/25/2025,21:14:08.29,-622.56,-495.12,-648.44,-73.93,-218.54,-42.68,
05/25/2025,21:14:08.34,-539.06,-491.21,-761.72,-95.03,-158.51,-57.50,
05/25/2025,21:14:08.36,-586.91,-584.96,-871.09,-59.79,-201.31,-22.38,
05/25/2025,21:14:08.38,-610.35,-536.13,-707.52,-16.37,-221.68,-5.15,
05/25/2025,21:14:08.40,-570.80,-267.09,347.66,-86.10,-291.07,26.98,
05/25/2025,21:14:08.42,-763.67,-489.75,-493.65,-98.99,-400.91,58.96,
05/25/2025,21:14:08.44,-947.75,-501.46,-466.80,-63.84,-297.07,32.68,
05/25/2025,21:14:08.46,-763.67,-473.63,-380.37,-43.63,-195.27,21.89,
05/25/2025,21:14:08.48,-906.25,-473.63,-380.37,-36.13,-140.91,24.27,
05/25/2025,21:14:08.50,-954.10,-465.82,-331.54,-7.41,-76.89,10.85,
05/25/2025,21:14:08.52,-916.02,-437.50,-196.29,-7.74,-132.07,-5.73,
05/25/2025,21:14:08.54,-822.75,-401.37,-161.13,-20.15,-74.85,-2.10,
05/25/2025,21:14:08.56,-859.86,-417.48,-183.59,-16.40,-50.55,10.30,
05/25/2025,21:14:08.58,-907.71,-436.52,-156.25,-1.77,-48.69,16.65,
05/25/2025,21:14:08.60,-926.76,-425.78,-75.20,-10.03,-61.34,13.66,
05/25/2025,21:14:08.62,-915.53,-471.19,-343.75,-8.84,-19.73,4.85,
05/25/2025,21:14:08.64,-808.11,-384.28,-125.49,-4.27,12.20,18.11,
05/25/2025,21:14:08.66,-958.50,-434.57,-63.96,-5.03,-2.65,27.07,
05/25/2025,21:14:08.68,-1022.95,-410.16,-74.71,-11.16,-16.10,10.73,
05/25/2025,21:14:08.70,-954.59,-388.18,-100.59,-3.35,-44.66,9.97,
05/25/2025,21:14:08.72,-960.45,-402.34,-89.84,-4.54,-52.29,1.10,
05/25/2025,21:14:08.74,-878.91,-381.35,-67.38,-13.11,-22.74,4.24,
05/25/2025,21:14:08.76,-963.38,-401.86,-30.27,-10.09,-7.84,12.41,
05/25/2025,21:14:08.78,-915.53,-408.20,-63.48,-10.76,9.51,9.51,
05/25/2025,21:14:08.80,-902.83,-363.77,-84.96,-6.83,25.64,20.37,
05/25/2025,21:14:08.85,-930.66,-375.00,-77.15,0.73,-30.46,2.87,
05/25/2025,21:14:08.87,-904.79,-358.40,-23.44,3.78,-23.99,3.11,
05/25/2025,21:14:08.89,-925.78,-344.24,-89.84,1.98,-20.18,9.12,
05/25/2025,21:14:08.91,-939.94,-390.62,-73.73,4.85,-27.38,0.98,
05/25/2025,21:14:08.93,-934.57,-368.16,-80.57,-1.59,-13.41,-2.93,
05/25/2025,21:14:08.95,-954.59,-341.80,-21.00,1.55,-16.86,-6.59,
05/25/2025,21:14:08.97,-929.69,-344.24,4.39,5.52,-11.77,-4.12,
05/25/2025,21:14:08.99,-940.43,-472.17,-249.02,6.89,-44.48,-2.16,
05/25/2025,21:14:09.01,-981.45,-388.67,31.74,7.71,-54.91,-10.49,
05/25/2025,21:14:09.03,-992.19,-369.14,41.50,5.00,-31.83,-20.95,
05/25/2025,21:14:09.05,-944.34,-387.21,106.93,-6.83,-71.10,-26.52,
05/25/2025,21:14:09.07,-915.04,-425.78,62.01,-15.06,-116.59,-43.17,
05/25/2025,21:14:09.09,-727.05,-444.82,-359.38,-6.22,-63.96,-35.09,
05/25/2025,21:14:09.11,-858.89,-416.02,31.74,5.06,-64.36,-21.95,
05/25/2025,21:14:09.13,-889.16,-405.27,101.07,-8.54,-32.44,-11.65,
05/25/2025,21:14:09.15,-862.30,-418.95,139.65,-2.41,10.73,-0.24,
05/25/2025,21:14:09.17,-1014.65,-488.28,85.45,-0.30,-71.43,-8.93,
05/25/2025,21:14:09.19,-860.84,-465.82,219.73,7.71,-71.46,-20.12,
05/25/2025,21:14:09.21,-859.38,-452.64,225.10,-6.68,-36.07,-13.11,
05/25/2025,21:14:09.23,-858.89,-463.87,216.80,-7.74,-18.08,-9.45,
05/25/2025,21:14:09.25,-834.47,-453.12,170.90,-2.77,4.63,-6.37,
05/25/2025,21:14:09.27,-781.25,-457.03,178.22,-4.97,32.71,6.83,
05/25/2025,21:14:09.29,-798.83,-440.92,155.76,-2.10,58.51,21.59,
05/25/2025,21:14:09.31,-874.02,-451.17,126.95,-3.38,102.59,33.57,
05/25/2025,21:14:09.36,-958.01,-396.00,77.15,-3.20,66.86,22.87,
05/25/2025,21:14:09.38,-922.85,-400.88,85.45,0.55,21.37,22.41,
05/25/2025,21:14:09.40,-964.84,-393.07,64.94,3.84,-8.60,25.06,
05/25/2025,21:14:09.42,-993.65,-391.11,62.01,0.70,-6.77,17.68,
05/25/2025,21:14:09.44,-797.85,-399.90,-48.34,2.38,-9.09,15.18,
05/25/2025,21:14:09.46,-841.80,-355.96,-32.71,11.25,38.45,43.29,
05/25/2025,21:14:09.48,-1005.37,-373.05,95.70,12.35,48.17,39.02,
05/25/2025,21:14:09.50,-1021.97,-372.56,99.61,11.46,42.01,25.73,
05/25/2025,21:14:09.52,-976.07,-361.33,62.01,2.65,25.61,17.56,
05/25/2025,21:14:09.54,-892.58,-347.66,-40.53,-2.16,54.94,16.25,
05/25/2025,21:14:09.56,-948.24,-314.45,-6.84,0.76,58.54,21.31,
05/25/2025,21:14:09.58,-947.75,-321.78,-78.12,0.58,38.60,18.57,
05/25/2025,21:14:09.60,-868.65,-320.80,-62.50,5.82,73.38,31.28,
05/25/2025,21:14:09.62,-1018.55,-323.73,-61.52,1.13,70.06,30.85,
05/25/2025,21:14:09.64,-1027.34,-278.81,-28.32,2.93,41.13,16.71,
05/25/2025,21:14:09.66,-1067.38,-330.57,-53.22,7.32,-8.14,1.68,
05/25/2025,21:14:09.68,-942.87,-289.55,-84.96,-5.58,-12.80,-3.38,
05/25/2025,21:14:09.70,-931.64,-280.27,-141.11,-2.29,-6.62,1.92,
05/25/2025,21:14:09.72,-900.88,-282.71,-141.11,-3.51,26.34,11.92,
05/25/2025,21:14:09.74,-917.97,-276.37,-110.84,1.55,41.77,21.07,
05/25/2025,21:14:09.76,-938.96,-276.86,-105.96,2.50,37.68,20.30,
05/25/2025,21:14:09.78,-972.17,-275.39,-102.54,-1.28,44.30,31.10,
05/25/2025,21:14:09.80,-1000.98,-285.64,-134.77,0.82,3.08,17.90,
05/25/2025,21:14:09.82,-958.98,-245.61,-146.97,-1.68,19.27,16.04,
05/25/2025,21:14:09.87,-1006.84,-258.30,-148.44,-2.59,28.08,19.48,
05/25/2025,21:14:09.89,-1025.88,-248.05,-143.07,-2.50,11.34,5.46,
05/25/2025,21:14:09.91,-968.75,-248.05,-183.11,-2.65,14.97,-4.21,
05/25/2025,21:14:09.93,-952.15,-228.03,-122.56,-3.99,27.44,-1.40,
05/25/2025,21:14:09.95,-973.14,-236.82,-109.38,-15.30,37.10,-0.21,
05/25/2025,21:14:09.97,-1026.86,-227.05,-166.02,-23.63,25.18,-3.14,
05/25/2025,21:14:09.99,-941.89,-213.38,-317.38,-5.64,17.56,-5.52,
05/25/2025,21:14:10.01,-835.45,-184.08,-303.22,1.59,20.15,6.62,
05/25/2025,21:14:10.03,-914.06,-236.82,-230.96,-1.04,21.65,6.16,
05/25/2025,21:14:10.05,-948.73,-230.47,-233.89,0.46,52.38,19.12,
05/25/2025,21:14:10.07,-1012.21,-232.42,-201.17,1.95,33.14,10.95,
05/25/2025,21:14:10.09,-986.82,-208.50,-240.72,5.34,2.68,5.34,
05/25/2025,21:14:10.11,-979.98,-210.45,-201.17,4.60,-59.63,0.98,
05/25/2025,21:14:10.13,-941.89,-217.77,-245.12,-0.24,-46.55,-0.43,
05/25/2025,21:14:10.15,-962.89,-231.45,-203.12,0.03,-39.27,-0.34,
05/25/2025,21:14:10.17,-966.80,-227.54,-166.50,3.57,-27.16,2.93,
05/25/2025,21:14:10.19,-976.07,-224.12,-174.80,2.96,-10.79,4.27,
05/25/2025,21:14:10.21,-1002.44,-233.40,-178.22,-0.73,-16.10,-1.55,
05/25/2025,21:14:10.23,-911.62,-210.45,-172.85,-6.34,15.76,2.77,
05/25/2025,21:14:10.25,-937.99,-235.35,-172.36,0.00,10.15,6.80,
05/25/2025,21:14:10.27,-1007.81,-225.10,-185.06,-1.31,6.98,3.05,
05/25/2025,21:14:10.29,-968.75,-207.03,-124.02,0.61,-0.58,4.66,
05/25/2025,21:14:10.31,-918.46,-198.73,-159.18,-4.66,12.35,4.24,
05/25/2025,21:14:10.33,-996.09,-216.80,-191.89,-5.27,5.06,0.91,
05/25/2025,21:14:10.38,-947.27,-208.98,-197.75,-2.32,-4.94,7.56,
05/25/2025,21:14:10.40,-971.19,-197.27,-196.29,-0.79,-5.37,5.21,
05/25/2025,21:14:10.42,-993.65,-207.52,-182.62,-0.27,-10.98,-0.58,
05/25/2025,21:14:10.44,-965.82,-203.61,-164.06,-0.70,-22.23,-2.71,
05/25/2025,21:14:10.46,-914.55,-191.41,-195.31,-3.41,-10.03,3.93,
05/25/2025,21:14:10.48,-998.54,-192.87,-199.22,-3.87,10.37,6.25,
05/25/2025,21:14:10.50,-1017.09,-207.52,-194.34,0.06,-2.59,5.46,
05/25/2025,21:14:10.52,-994.14,-207.52,-143.55,0.76,-12.65,2.50,
05/25/2025,21:14:10.54,-932.62,-202.15,-173.83,-1.80,-12.84,-3.75,
05/25/2025,21:14:10.56,-974.61,-195.31,-165.53,-0.88,0.24,3.99,
05/25/2025,21:14:10.58,-1013.18,-209.47,-160.16,0.06,7.62,6.22,
05/25/2025,21:14:10.60,-952.64,-184.08,-126.46,2.71,-12.07,5.70,
05/25/2025,21:14:10.62,-947.27,-212.40,-205.57,0.64,-13.45,4.82,
05/25/2025,21:14:10.64,-980.96,-202.15,-175.29,-0.49,-20.64,-0.37,
05/25/2025,21:14:10.66,-941.41,-184.08,-138.18,-0.27,-4.88,5.06,
05/25/2025,21:14:10.68,-978.03,-166.02,-172.36,-0.43,-1.16,5.49,
05/25/2025,21:14:10.70,-1001.95,-178.71,-128.91,1.16,-7.96,6.52,
05/25/2025,21:14:10.73,-1029.30,-235.84,-199.22,5.18,-66.71,-7.84,
05/25/2025,21:14:10.75,-956.05,-185.55,-80.08,2.41,-74.97,-10.30,
05/25/2025,21:14:10.77,-1026.86,-207.52,-111.82,-1.52,-67.93,-8.84,
05/25/2025,21:14:10.79,-961.91,-213.38,-84.47,-1.16,-56.46,-24.15,
05/25/2025,21:14:10.81,-1015.14,-205.08,-21.48,-3.38,-50.15,-18.29,
05/25/2025,21:14:10.83,-933.59,-195.80,37.60,-8.54,-71.98,-19.24,
05/25/2025,21:14:10.85,-888.67,-210.45,19.04,-6.49,-55.88,-9.70,
05/25/2025,21:14:10.91,-978.52,-224.61,-92.29,3.41,11.65,9.15,
05/25/2025,21:14:10.93,-1023.44,-209.47,-0.98,9.63,-8.26,12.80,
05/25/2025,21:14:10.95,-1032.23,-220.21,-14.16,1.59,-12.71,2.41,
05/25/2025,21:14:10.97,-987.79,-192.38,41.99,1.43,-3.69,6.22,
05/25/2025,21:14:10.99,-983.40,-191.89,30.27,-0.06,-4.63,8.78,
05/25/2025,21:14:11.01,-1007.32,-202.15,52.25,1.86,-13.29,6.19,
05/25/2025,21:14:11.04,-978.03,-198.24,41.02,15.00,-69.63,5.91,
05/25/2025,21:14:11.06,-1012.21,-229.00,11.23,-0.06,-55.21,10.00,
05/25/2025,21:14:11.08,-1021.97,-196.78,85.45,0.30,-39.42,1.86,
05/25/2025,21:14:11.10,-1001.95,-203.61,117.68,-2.32,-38.17,-4.51,
05/25/2025,21:14:11.12,-963.38,-213.38,137.70,0.40,-26.71,-10.55,
05/25/2025,21:14:11.14,-979.49,-228.52,149.90,-6.25,-16.95,-12.38,
05/25/2025,21:14:11.16,-988.77,-210.45,107.91,-7.38,-8.32,-14.12,
05/25/2025,21:14:11.18,-881.35,-196.29,133.79,4.02,-47.65,-12.87,
05/25/2025,21:14:11.20,-951.66,-217.29,169.92,-2.99,-78.20,-13.41,
05/25/2025,21:14:11.22,-954.59,-213.38,192.87,-1.13,-67.07,-14.45,
05/25/2025,21:14:11.24,-940.92,-206.05,213.38,3.29,-86.52,-10.30,
05/25/2025,21:14:11.26,-984.86,-258.79,284.67,-8.17,-67.87,-4.94,
05/25/2025,21:14:11.28,-916.02,-214.84,333.98,-26.31,-70.67,-1.80,
05/25/2025,21:14:11.30,-935.55,-223.63,206.05,-16.04,-51.28,-3.08,
05/25/2025,21:14:11.32,-943.36,-226.07,260.74,-3.02,-52.13,-11.89,
05/25/2025,21:14:11.34,-939.45,-243.65,278.32,2.84,-34.36,-7.96,
05/25/2025,21:14:11.36,-902.83,-226.56,306.64,8.11,-15.46,-5.15,
05/25/2025,21:14:11.41,-933.11,-222.66,326.17,1.59,25.67,1.01,
05/25/2025,21:14:11.43,-942.38,-236.33,331.54,0.82,33.54,1.95,
05/25/2025,21:14:11.45,-934.08,-253.42,291.99,4.85,73.96,-1.10,
05/25/2025,21:14:11.47,-948.73,-251.46,272.95,8.90,115.12,-4.27,
05/25/2025,21:14:11.49,-983.89,-239.75,250.49,11.86,147.07,-18.17,
05/25/2025,21:14:11.51,-999.51,-262.70,157.23,12.93,166.55,-14.66,
05/25/2025,21:14:11.53,-958.50,-242.19,161.62,12.04,125.46,-14.36,
05/25/2025,21:14:11.55,-890.14,-249.02,147.95,7.26,149.02,-0.98,
05/25/2025,21:14:11.57,-1007.32,-237.79,27.34,-0.21,152.44,6.55,
05/25/2025,21:14:11.59,-1017.58,-234.38,-4.88,-6.07,131.13,3.66,
05/25/2025,21:14:11.61,-988.77,-227.54,-27.83,-3.84,92.16,-2.68,
05/25/2025,21:14:11.63,-957.03,-251.95,-62.50,-1.31,68.84,-0.18,
05/25/2025,21:14:11.65,-958.50,-252.93,-95.70,-4.33,66.46,-3.60,
05/25/2025,21:14:11.67,-950.20,-250.00,-176.76,-20.27,111.34,0.98,
05/25/2025,21:14:11.69,-948.24,-230.96,-142.09,-12.41,76.98,7.80,
05/25/2025,21:14:11.71,-1008.30,-251.95,-266.60,0.15,70.00,2.32,
05/25/2025,21:14:11.73,-965.82,-306.64,-342.77,15.46,101.43,-11.49,
05/25/2025,21:14:11.75,-861.82,-246.58,-284.18,20.46,119.57,-4.88,
05/25/2025,21:14:11.77,-895.02,-256.35,-388.18,13.17,109.82,-3.05,
05/25/2025,21:14:11.79,-911.62,-264.65,-322.75,10.30,89.57,4.27,
05/25/2025,21:14:11.81,-932.13,-282.71,-384.28,8.11,69.12,3.45,
05/25/2025,21:14:11.83,-924.80,-278.32,-336.43,13.84,52.35,-9.42,
05/25/2025,21:14:11.85,-906.74,-262.70,-342.29,12.20,27.50,-5.03,
05/25/2025,21:14:11.87,-900.88,-252.44,-395.02,1.62,14.66,-8.90,
05/25/2025,21:14:11.92,-870.12,-248.54,-439.94,-2.01,43.26,11.52,
05/25/2025,21:14:11.94,-899.41,-228.03,-411.13,-2.23,20.40,3.99,
05/25/2025,21:14:11.96,-896.48,-233.40,-406.25,0.06,14.42,4.76,
05/25/2025,21:14:11.98,-895.02,-250.49,-393.55,2.47,-5.37,-0.21,
05/25/2025,21:14:12.00,-875.00,-238.77,-415.04,-1.46,-10.88,-4.30,
05/25/2025,21:14:12.02,-887.21,-255.86,-379.39,0.61,-18.08,-0.12,
05/25/2025,21:14:12.04,-854.98,-262.70,-395.51,-2.16,-0.95,-0.58,
05/25/2025,21:14:12.06,-882.81,-247.07,-390.62,3.35,-13.45,-2.20,
05/25/2025,21:14:12.08,-900.88,-261.23,-384.77,5.30,-18.23,-2.87,
05/25/2025,21:14:12.10,-915.53,-258.30,-345.21,3.26,-33.51,-7.13,
05/25/2025,21:14:12.12,-904.30,-245.61,-352.05,3.90,-44.18,-7.99,
05/25/2025,21:14:12.14,-909.67,-259.28,-380.86,2.56,-50.85,-8.08,
05/25/2025,21:14:12.16,-893.07,-256.35,-321.29,6.55,-42.13,-3.69,
05/25/2025,21:14:12.18,-930.18,-270.02,-309.08,-0.21,-29.94,-5.85,
05/25/2025,21:14:12.20,-944.82,-264.65,-273.44,-3.35,-64.97,-4.09,
05/25/2025,21:14:12.22,-919.43,-276.86,-306.64,-8.99,-86.34,-4.85,
05/25/2025,21:14:12.24,-904.30,-272.95,-268.55,-5.09,-50.18,1.28,
05/25/2025,21:14:12.26,-942.38,-259.28,-251.46,-6.40,-36.31,0.73,
05/25/2025,21:14:12.28,-935.06,-259.77,-269.53,-9.57,-21.28,-3.26,
05/25/2025,21:14:12.30,-944.34,-262.21,-247.56,-1.98,-13.29,-0.61,
05/25/2025,21:14:12.32,-958.01,-274.41,-232.42,-2.68,-3.38,0.73,
05/25/2025,21:14:12.34,-945.80,-276.37,-238.28,-3.99,5.40,-0.79,
05/25/2025,21:14:12.36,-933.59,-262.21,-237.79,-5.91,33.45,2.29,
05/25/2025,21:14:12.38,-932.62,-257.32,-233.89,-1.04,21.83,4.63,
05/25/2025,21:14:12.44,-931.64,-265.14,-269.04,-1.31,28.87,-1.80,
05/25/2025,21:14:12.46,-959.96,-264.65,-276.37,3.14,13.45,-4.76,
05/25/2025,21:14:12.48,-916.50,-286.13,-261.72,4.54,-5.40,-7.20,
05/25/2025,21:14:12.50,-940.92,-259.28,-272.95,3.48,-16.52,-9.94,
05/25/2025,21:14:12.52,-934.08,-257.81,-261.23,5.73,-23.69,-9.18,
05/25/2025,21:14:12.54,-924.32,-276.86,-263.18,9.39,-55.76,-7.44,
05/25/2025,21:14:12.56,-941.41,-274.41,-217.29,6.62,-43.93,-2.50,
05/25/2025,21:14:12.58,-996.09,-274.90,-229.00,5.34,-92.16,-12.13,
05/25/2025,21:14:12.60,-917.97,-269.53,-172.36,7.71,-117.20,-12.56,
05/25/2025,21:14:12.62,-981.45,-283.69,-133.79,7.04,-111.10,-9.24,
05/25/2025,21:14:12.64,-910.64,-283.69,-96.68,8.26,-112.26,-2.87,
05/25/2025,21:14:12.66,-985.35,-293.95,-33.20,-0.30,-68.90,-1.55,
05/25/2025,21:14:12.68,-1023.44,-240.72,-1.95,-9.15,-105.98,-3.48,
05/25/2025,21:14:12.70,-870.12,-268.07,-62.01,3.96,-144.21,10.73,
05/25/2025,21:14:12.72,-911.13,-252.93,32.23,28.17,-145.27,21.01,
05/25/2025,21:14:12.74,-992.68,-260.74,136.23,14.05,-133.60,36.83,
05/25/2025,21:14:12.76,-1011.72,-251.95,149.90,14.70,-131.49,29.51,
05/25/2025,21:14:12.78,-932.62,-280.76,195.80,8.35,-67.38,27.13,
05/25/2025,21:14:12.80,-958.50,-246.58,224.12,0.18,-51.37,18.35,
05/25/2025,21:14:12.82,-937.01,-262.70,243.65,5.79,-63.35,16.10,
05/25/2025,21:14:12.84,-934.08,-201.66,266.60,3.84,-84.48,11.92,
05/25/2025,21:14:12.86,-890.14,-246.09,310.06,2.32,-115.52,13.99,
05/25/2025,21:14:12.88,-960.94,-266.60,307.62,2.38,-84.36,11.28,
05/25/2025,21:14:12.90,-919.92,-219.73,345.21,-2.90,-37.32,8.69,
05/25/2025,21:14:12.95,-872.56,-228.52,417.48,-4.51,-87.23,6.31,
05/25/2025,21:14:12.97,-867.19,-263.67,330.08,-0.70,-48.90,16.25,
05/25/2025,21:14:12.99,-926.76,-222.17,398.44,1.95,-1.31,-0.06,
05/25/2025,21:14:13.01,-842.77,-197.75,368.16,-9.24,41.52,8.14,
05/25/2025,21:14:13.03,-907.23,-178.71,395.51,-6.40,60.18,14.18,
05/25/2025,21:14:13.05,-921.39,-184.08,402.34,13.69,0.95,20.03,
05/25/2025,21:14:13.07,-940.43,-204.10,402.34,20.91,2.04,15.30,
05/25/2025,21:14:13.09,-948.73,-173.34,452.15,13.66,1.19,11.43,
05/25/2025,21:14:13.11,-922.85,-191.89,424.32,1.52,-17.84,2.93,
05/25/2025,21:14:13.13,-935.06,-174.80,408.20,-1.86,5.40,3.69,
05/25/2025,21:14:13.15,-914.55,-175.78,416.02,2.74,-1.80,-2.26,
05/25/2025,21:14:13.17,-888.67,-162.60,418.95,-2.29,-42.32,-8.90,
05/25/2025,21:14:13.19,-908.20,-188.96,414.06,4.63,-68.81,-7.65,
05/25/2025,21:14:13.21,-868.65,-210.94,425.29,2.04,-46.25,-6.98,
05/25/2025,21:14:13.23,-890.14,-194.34,442.87,2.32,-18.11,-3.26,
05/25/2025,21:14:13.25,-903.32,-207.52,471.68,3.32,-19.42,-5.61,
05/25/2025,21:14:13.27,-875.49,-200.20,460.45,-0.27,5.09,-5.79,
05/25/2025,21:14:13.29,-888.67,-193.36,466.31,2.90,7.41,-8.11,
05/25/2025,21:14:13.31,-869.63,-192.38,436.52,-0.15,25.06,-1.40,
05/25/2025,21:14:13.33,-874.51,-180.18,426.27,-2.07,51.04,3.20,
05/25/2025,21:14:13.35,-893.55,-199.22,401.37,-1.52,87.23,-3.51,
05/25/2025,21:14:13.37,-923.83,-216.80,393.55,-6.55,142.04,-2.87,
05/25/2025,21:14:13.39,-943.36,-187.50,311.52,-17.26,219.45,-11.46,
05/25/2025,21:14:13.41,-902.83,-186.52,188.96,-13.41,254.24,-1.74,
05/25/2025,21:14:13.46,-870.12,-208.01,57.13,0.06,131.80,15.79,
05/25/2025,21:14:13.48,-997.56,-176.27,56.15,-3.08,140.88,25.40,
05/25/2025,21:14:13.50,-1013.67,-152.83,2.44,6.31,91.95,26.25,
05/25/2025,21:14:13.52,-993.65,-175.29,-20.51,7.93,82.41,23.51,
05/25/2025,21:14:13.54,-998.54,-154.79,-45.41,8.96,81.01,17.23,
05/25/2025,21:14:13.56,-999.51,-146.48,-85.94,4.12,60.98,8.78,
05/25/2025,21:14:13.58,-1013.67,-144.53,-108.40,2.01,37.01,-3.69,
05/25/2025,21:14:13.60,-999.51,-160.64,-108.89,-3.84,28.90,-3.75,
05/25/2025,21:14:13.62,-950.20,-165.04,-119.14,-2.77,41.16,-5.70,
05/25/2025,21:14:13.64,-999.02,-155.76,-110.35,-3.41,47.87,-5.76,
05/25/2025,21:14:13.66,-1018.55,-154.30,-122.56,1.92,17.38,-12.96,
05/25/2025,21:14:13.68,-997.56,-178.22,-144.04,2.35,-12.56,-17.35,
05/25/2025,21:14:13.70,-973.14,-175.78,-152.83,-2.44,-12.35,-7.56,
05/25/2025,21:14:13.72,-1007.32,-183.59,-132.81,-3.45,0.06,-4.48,
05/25/2025,21:14:13.74,-1014.65,-178.71,-131.35,-3.35,6.98,-2.47,
05/25/2025,21:14:13.76,-984.38,-185.06,-150.39,-2.44,14.51,-2.80,
05/25/2025,21:14:13.78,-964.36,-177.25,-146.48,-2.56,4.94,-6.10,
05/25/2025,21:14:13.80,-961.91,-186.04,-143.55,-2.56,1.80,-2.68,
05/25/2025,21:14:13.82,-959.47,-187.01,-159.18,-4.63,2.16,-6.62,
05/25/2025,21:14:13.84,-975.10,-184.57,-159.18,-1.86,0.67,-2.93,
05/25/2025,21:14:13.86,-967.29,-186.04,-159.67,-1.16,0.61,-3.69,
05/25/2025,21:14:13.88,-917.48,-172.36,-217.77,-10.21,-11.62,0.76,
05/25/2025,21:14:13.90,-975.59,-227.54,-96.68,2.77,15.88,17.77,
05/25/2025,21:14:13.92,-1023.93,-206.05,-95.21,6.43,37.53,11.43,
05/25/2025,21:14:13.97,-1008.30,-172.36,-173.34,3.41,19.66,-11.25,
05/25/2025,21:14:13.99,-977.05,-174.80,-194.34,-1.46,15.95,-12.04,
05/25/2025,21:14:14.01,-977.54,-181.64,-195.31,-5.49,19.79,-16.89,
05/25/2025,21:14:14.03,-955.57,-189.94,-193.36,-13.14,9.91,-24.88,
05/25/2025,21:14:14.05,-922.85,-191.89,-215.82,-18.51,1.92,-21.10,
05/25/2025,21:14:14.07,-915.53,-214.36,-221.19,-11.43,-0.40,-13.72,
05/25/2025,21:14:14.09,-926.76,-191.41,-228.52,-9.48,-10.43,-15.55,
05/25/2025,21:14:14.11,-918.46,-207.52,-240.72,-5.79,-11.19,-8.72,
05/25/2025,21:14:14.13,-903.32,-213.38,-238.77,0.82,5.61,5.70,
05/25/2025,21:14:14.15,-949.71,-198.73,-215.33,11.68,28.63,18.41,
05/25/2025,21:14:14.17,-979.98,-188.48,-196.29,12.74,32.35,21.52,
05/25/2025,21:14:14.19,-984.38,-173.83,-198.24,10.06,25.15,21.46,
05/25/2025,21:14:14.21,-983.40,-167.48,-208.50,4.66,14.21,12.77,
05/25/2025,21:14:14.23,-998.54,-177.73,-217.29,-0.76,19.48,2.56,
05/25/2025,21:14:14.25,-997.56,-193.36,-228.52,-2.29,8.48,-3.45,
05/25/2025,21:14:14.27,-977.54,-182.62,-224.61,-0.24,6.31,-9.85,
05/25/2025,21:14:14.29,-955.08,-176.76,-237.30,-4.94,5.88,-14.02,
05/25/2025,21:14:14.31,-951.17,-199.22,-234.86,-1.68,3.02,-8.87,
05/25/2025,21:14:14.33,-956.05,-192.87,-252.93,-0.30,1.19,-5.88,
05/25/2025,21:14:14.35,-968.26,-181.15,-234.86,-0.15,-1.37,-3.84,
05/25/2025,21:14:14.37,-929.20,-190.43,-253.91,-5.09,0.27,-2.44,
05/25/2025,21:14:14.39,-941.41,-191.89,-261.23,-5.46,4.51,1.98,
05/25/2025,21:14:14.41,-964.84,-190.43,-244.14,-3.57,2.44,3.05,
05/25/2025,21:14:14.44,-946.78,-186.04,-239.26,-1.59,6.16,-1.16,
05/25/2025,21:14:14.48,-946.78,-196.78,-253.42,-4.09,4.12,-4.39,
05/25/2025,21:14:14.50,-960.94,-199.22,-246.09,0.03,-0.61,-6.92,
05/25/2025,21:14:14.52,-969.24,-183.11,-235.35,-0.24,0.37,-5.85,
05/25/2025,21:14:14.54,-945.80,-187.99,-240.72,-0.67,0.09,-6.43,
05/25/2025,21:14:14.56,-963.38,-201.66,-248.05,1.68,5.00,-6.68,
05/25/2025,21:14:14.58,-951.66,-199.71,-248.54,1.95,7.68,-3.08,
05/25/2025,21:14:14.60,-962.89,-190.92,-233.40,-1.01,11.10,-2.32,
05/25/2025,21:14:14.63,-971.19,-212.89,-250.49,0.12,12.41,-0.27,
05/25/2025,21:14:14.65,-964.36,-191.89,-250.98,0.37,6.68,-1.10,
05/25/2025,21:14:14.67,-945.31,-203.12,-246.09,1.74,6.89,-3.23,
05/25/2025,21:14:14.69,-950.68,-193.85,-252.44,1.68,9.05,2.62,
05/25/2025,21:14:14.71,-980.47,-204.59,-250.00,-0.79,9.02,-0.64,
05/25/2025,21:14:14.73,-970.70,-208.50,-274.41,-2.56,11.37,-4.70,
05/25/2025,21:14:14.75,-934.57,-212.89,-273.44,-1.31,9.33,1.86,
05/25/2025,21:14:14.77,-940.92,-198.73,-265.14,-0.43,8.23,1.49,
05/25/2025,21:14:14.79,-957.52,-210.45,-253.91,-2.47,-0.49,-0.03,
05/25/2025,21:14:14.81,-950.20,-207.03,-276.86,-2.23,0.09,-3.93,
05/25/2025,21:14:14.83,-953.12,-203.61,-286.13,-0.40,7.26,-0.18,
05/25/2025,21:14:14.85,-955.57,-199.22,-265.14,1.10,4.73,-4.54,
05/25/2025,21:14:14.87,-934.57,-205.57,-275.39,-1.65,-1.71,-3.17,
05/25/2025,21:14:14.89,-947.75,-211.91,-271.48,-0.85,3.75,-4.33,
05/25/2025,21:14:14.91,-943.85,-210.45,-263.67,-1.83,1.65,-8.05,
05/25/2025,21:14:14.93,-966.31,-210.45,-267.09,-5.79,-7.87,-11.07,
05/25/2025,21:14:14.95,-923.83,-210.45,-269.53,-7.80,-15.82,-21.07,
05/25/2025,21:14:15.00,-969.73,-233.89,-249.02,-6.74,-9.66,-23.32,
05/25/2025,21:14:15.02,-977.54,-233.40,-247.07,0.70,-11.16,-20.85,
05/25/2025,21:14:15.04,-967.77,-231.93,-229.98,3.08,-11.80,-19.97,
05/25/2025,21:14:15.06,-969.24,-272.95,-217.29,-1.92,-9.39,-19.60,
05/25/2025,21:14:15.08,-951.17,-271.48,-230.47,-1.68,-11.34,-17.77,
05/25/2025,21:14:15.10,-940.92,-251.95,-215.82,-9.42,-8.93,-16.83,
05/25/2025,21:14:15.12,-961.91,-260.74,-233.40,-7.01,-6.74,-15.85,
05/25/2025,21:14:15.14,-962.40,-279.79,-241.70,-3.38,5.34,-11.95,
05/25/2025,21:14:15.16,-951.17,-275.88,-240.23,4.54,12.44,-7.32,
05/25/2025,21:14:15.18,-967.29,-271.00,-224.61,0.79,14.15,-9.27,
05/25/2025,21:14:15.20,-939.94,-280.76,-236.82,-0.55,14.21,-14.82,
05/25/2025,21:14:15.22,-950.68,-286.13,-234.86,-3.14,10.67,-12.99,
05/25/2025,21:14:15.24,-950.20,-280.76,-243.65,-0.03,7.38,-13.20,
05/25/2025,21:14:15.26,-928.71,-265.14,-252.44,2.87,15.24,-3.14,
05/25/2025,21:14:15.28,-934.08,-287.11,-246.09,3.78,18.05,5.61,
05/25/2025,21:14:15.30,-931.15,-286.62,-256.35,7.26,22.77,4.42,
05/25/2025,21:14:15.32,-924.80,-287.11,-257.32,6.31,26.95,9.79,
05/25/2025,21:14:15.34,-923.34,-275.39,-263.67,4.48,22.04,10.88,
05/25/2025,21:14:15.36,-941.89,-275.39,-268.55,7.04,22.07,12.23,
05/25/2025,21:14:15.38,-938.48,-283.20,-271.48,1.43,22.62,12.04,
05/25/2025,21:14:15.40,-939.45,-263.18,-287.60,0.40,21.77,10.61,
05/25/2025,21:14:15.42,-923.34,-271.97,-304.69,-2.62,13.05,5.00,
05/25/2025,21:14:15.44,-923.34,-266.11,-299.80,0.00,12.99,1.62,
05/25/2025,21:14:15.46,-915.04,-270.02,-308.11,-0.03,16.25,-1.40,
05/25/2025,21:14:15.51,-916.02,-265.62,-314.45,5.06,20.46,3.72,
05/25/2025,21:14:15.53,-924.80,-269.04,-319.34,4.33,22.99,3.60,
05/25/2025,21:14:15.55,-923.83,-276.86,-329.59,4.94,18.14,0.70,
05/25/2025,21:14:15.57,-911.62,-252.44,-333.98,1.74,13.45,-1.62,
05/25/2025,21:14:15.59,-912.60,-261.23,-354.00,-3.35,8.90,-2.38,
05/25/2025,21:14:15.61,-897.95,-268.55,-350.10,2.10,12.65,-3.05,
05/25/2025,21:14:15.63,-924.32,-255.86,-352.05,2.74,21.37,-1.10,
05/25/2025,21:14:15.65,-901.86,-252.93,-346.68,2.62,17.59,7.26,
05/25/2025,21:14:15.67,-890.62,-264.65,-355.96,2.38,15.09,3.96,
05/25/2025,21:14:15.69,-907.71,-269.04,-352.05,4.51,14.27,2.53,
05/25/2025,21:14:15.71,-912.60,-251.46,-361.82,3.17,14.54,5.24,
05/25/2025,21:14:15.73,-917.48,-269.04,-358.89,0.00,16.10,4.66,
05/25/2025,21:14:15.75,-912.11,-285.16,-412.11,-0.06,12.71,2.56,
05/25/2025,21:14:15.77,-917.48,-251.95,-390.14,-2.41,5.09,-1.62,
05/25/2025,21:14:15.79,-893.55,-257.81,-373.05,-2.68,5.09,-0.46,
05/25/2025,21:14:15.81,-906.74,-260.74,-378.91,-0.91,8.51,1.52,
05/25/2025,21:14:15.83,-918.46,-265.62,-373.05,1.16,7.41,-3.08,
05/25/2025,21:14:15.85,-892.58,-272.46,-398.93,3.54,9.42,-8.54,
05/25/2025,21:14:15.87,-893.07,-258.30,-376.46,0.00,2.38,-6.37,
05/25/2025,21:14:15.89,-873.54,-255.86,-394.04,2.16,2.38,-7.96,
05/25/2025,21:14:15.91,-889.16,-247.07,-398.93,2.53,4.97,-6.83,
05/25/2025,21:14:15.93,-886.72,-264.16,-389.65,1.01,4.73,-2.99,
05/25/2025,21:14:15.95,-903.32,-256.84,-381.84,2.35,6.37,-1.95,
05/25/2025,21:14:15.97,-909.67,-262.70,-376.46,-1.04,4.70,2.20,
05/25/2025,21:14:16.02,-903.32,-257.81,-391.60,0.61,0.43,-2.50,
05/25/2025,21:14:16.04,-884.77,-263.18,-393.55,-3.63,0.15,-2.93,
05/25/2025,21:14:16.06,-885.74,-265.14,-379.88,0.21,0.52,2.44,
05/25/2025,21:14:16.08,-899.41,-265.62,-392.58,0.12,1.59,0.88,
05/25/2025,21:14:16.10,-910.16,-269.53,-376.46,-0.73,1.62,-4.21,
05/25/2025,21:14:16.12,-891.11,-268.55,-382.32,-4.12,-1.65,-3.29,
05/25/2025,21:14:16.14,-885.25,-267.58,-385.25,-3.32,-1.22,-3.02,
05/25/2025,21:14:16.16,-889.65,-242.68,-380.37,-3.32,-4.91,-1.49,
05/25/2025,21:14:16.18,-891.11,-267.09,-377.44,-3.26,-5.24,-3.69,
05/25/2025,21:14:16.20,-886.23,-260.25,-399.41,-1.68,-5.61,-2.41,
05/25/2025,21:14:16.22,-887.70,-283.69,-400.39,-1.37,-3.90,-1.10,
05/25/2025,21:14:16.24,-899.41,-266.60,-369.63,-4.05,-6.83,-2.68,
05/25/2025,21:14:16.26,-908.20,-266.11,-404.79,-3.20,5.58,2.50,
05/25/2025,21:14:16.28,-921.39,-249.02,-365.23,-2.47,5.64,-0.98,
05/25/2025,21:14:16.30,-905.76,-249.02,-383.79,-0.61,3.35,-1.77,
05/25/2025,21:14:16.32,-906.25,-250.98,-385.25,-5.95,2.71,1.74,
05/25/2025,21:14:16.34,-913.57,-250.98,-374.02,-2.84,6.83,6.16,
05/25/2025,21:14:16.36,-913.09,-253.91,-379.88,-4.18,5.24,1.98,
05/25/2025,21:14:16.38,-890.62,-247.07,-368.65,-6.80,11.68,1.01,
05/25/2025,21:14:16.40,-895.51,-269.04,-372.07,-7.13,1.10,1.59,
05/25/2025,21:14:16.42,-918.46,-263.18,-416.50,-6.13,3.93,-2.96,
05/25/2025,21:14:16.44,-911.62,-245.61,-365.72,-1.31,-10.88,-5.00,
05/25/2025,21:14:16.46,-900.88,-255.86,-413.57,-2.59,-4.21,-3.20,
05/25/2025,21:14:16.48,-882.81,-239.26,-380.86,-2.47,1.28,0.00,
05/25/2025,21:14:16.53,-927.73,-243.65,-402.34,-1.92,7.65,-0.06,
05/25/2025,21:14:16.55,-903.81,-242.68,-408.69,0.79,6.46,-0.15,
05/25/2025,21:14:16.57,-895.51,-248.54,-389.65,1.46,4.21,-1.25,
05/25/2025,21:14:16.59,-897.95,-247.56,-402.34,-1.49,6.77,0.34,
05/25/2025,21:14:16.61,-913.57,-236.33,-390.62,-5.00,7.96,-0.21,
05/25/2025,21:14:16.63,-894.53,-252.44,-386.23,-1.62,2.44,1.19,
05/25/2025,21:14:16.65,-865.23,-243.16,-416.99,-1.89,4.05,1.77,
05/25/2025,21:14:16.67,-887.70,-252.93,-393.07,-0.52,8.29,3.23,
05/25/2025,21:14:16.69,-883.30,-249.51,-410.64,-4.97,14.85,-0.58,
05/25/2025,21:14:16.71,-908.20,-248.05,-404.30,-1.43,14.05,-4.42,
05/25/2025,21:14:16.73,-882.32,-236.82,-406.74,-2.44,18.32,-0.79,
05/25/2025,21:14:16.75,-906.74,-243.65,-422.85,-3.66,20.85,-0.43,
05/25/2025,21:14:16.77,-876.95,-225.59,-404.79,-8.60,21.95,-3.11,
05/25/2025,21:14:16.79,-877.44,-230.96,-411.13,-17.96,25.27,1.62,
05/25/2025,21:14:16.81,-917.97,-218.26,-443.36,-13.69,37.50,3.84,
05/25/2025,21:14:16.83,-893.55,-227.54,-420.41,-17.38,8.48,4.30,
05/25/2025,21:14:16.85,-860.84,-224.61,-464.36,-18.81,1.83,2.10,
05/25/2025,21:14:16.87,-883.79,-233.40,-458.01,-20.12,9.48,-0.34,
05/25/2025,21:14:16.89,-877.44,-231.45,-475.10,-15.55,34.94,1.16,
05/25/2025,21:14:16.91,-851.07,-216.80,-483.89,-14.24,39.48,1.86,
05/25/2025,21:14:16.93,-852.54,-225.10,-476.07,-10.24,34.27,6.46,
05/25/2025,21:14:16.95,-861.33,-214.36,-495.12,-15.40,36.19,9.15,
05/25/2025,21:14:16.97,-833.50,-227.05,-517.58,-16.04,50.12,12.65,
05/25/2025,21:14:16.99,-832.52,-216.80,-515.62,-11.86,59.94,9.27,
05/25/2025,21:14:17.05,-802.73,-186.04,-657.71,-5.06,110.49,7.87,
05/25/2025,21:14:17.07,-771.48,-203.12,-602.54,-3.29,118.35,6.55,
05/25/2025,21:14:17.09,-762.70,-187.99,-633.30,0.06,109.79,2.50,
05/25/2025,21:14:17.11,-713.87,-193.85,-677.73,1.89,97.44,0.73,
05/25/2025,21:14:17.13,-770.51,-175.78,-847.17,47.01,5.15,12.50,
05/25/2025,21:14:17.15,-725.10,-167.48,-692.38,16.25,10.43,5.67,
05/25/2025,21:14:17.17,-709.96,-185.55,-720.70,22.23,-1.28,2.16,
05/25/2025,21:14:17.19,-750.00,-191.89,-654.30,17.84,4.76,-1.89,
05/25/2025,21:14:17.21,-751.46,-207.03,-676.27,5.24,16.52,-6.46,
05/25/2025,21:14:17.23,-695.80,-196.78,-691.89,3.14,2.80,-6.80,
05/25/2025,21:14:17.25,-691.41,-205.08,-744.63,3.26,0.21,-6.13,
05/25/2025,21:14:17.27,-677.73,-204.59,-692.87,8.96,-1.43,-3.93,
05/25/2025,21:14:17.29,-708.01,-203.61,-685.55,15.49,-23.75,4.09,
05/25/2025,21:14:17.31,-621.09,-207.52,-650.88,15.58,-32.10,13.81,
05/25/2025,21:14:17.33,-709.96,-197.27,-639.16,6.10,-21.04,19.63,
05/25/2025,21:14:17.35,-716.31,-187.99,-725.10,14.48,-68.63,19.51,
05/25/2025,21:14:17.37,-759.77,-192.87,-637.21,25.58,-61.95,14.02,
05/25/2025,21:14:17.39,-794.92,-206.05,-594.73,11.59,-46.92,17.07,
05/25/2025,21:14:17.41,-809.08,-205.08,-629.88,11.25,-30.85,11.89,
05/25/2025,21:14:17.43,-814.94,-173.34,-606.93,23.51,-61.07,13.51,
05/25/2025,21:14:17.45,-818.36,-173.83,-425.29,8.87,-109.60,8.05,
05/25/2025,21:14:17.47,-857.91,-229.98,-619.63,-0.70,-117.50,3.51,
05/25/2025,21:14:17.49,-873.54,-191.89,-524.90,-1.43,-67.90,-6.16,
05/25/2025,21:14:17.51,-838.87,-177.25,-519.53,9.51,-69.33,-2.44,
05/25/2025,21:14:17.56,-897.46,-190.43,-442.38,4.24,24.73,16.77,
05/25/2025,21:14:17.58,-686.52,-174.32,-591.80,8.45,21.31,4.82,
05/25/2025,21:14:17.60,-890.14,-193.36,-480.47,6.49,13.75,1.77,
05/25/2025,21:14:17.62,-942.38,-215.33,-479.00,-0.85,-0.85,-9.66,
05/25/2025,21:14:17.64,-883.30,-183.59,-441.41,5.73,11.40,-2.93,
05/25/2025,21:14:17.66,-856.93,-204.59,-502.44,5.06,3.38,-7.23,
05/25/2025,21:14:17.68,-822.27,-180.66,-482.42,7.90,-6.80,-5.34,
05/25/2025,21:14:17.70,-876.95,-225.10,-481.93,6.71,-12.35,-6.16,
05/25/2025,21:14:17.72,-840.82,-211.91,-484.86,8.32,-17.13,-1.65,
05/25/2025,21:14:17.74,-840.82,-201.17,-500.98,11.71,-23.99,-1.55,
05/25/2025,21:14:17.76,-855.47,-217.29,-463.87,12.62,-19.02,-1.13,
05/25/2025,21:14:17.78,-900.39,-210.94,-461.43,13.23,-15.79,-5.85,
05/25/2025,21:14:17.80,-890.14,-206.54,-457.52,9.18,8.51,-0.85,
05/25/2025,21:14:17.82,-896.48,-192.87,-415.53,4.51,6.77,2.35,
05/25/2025,21:14:17.85,-918.46,-203.12,-437.99,3.23,16.28,4.24,
05/25/2025,21:14:17.87,-940.43,-214.36,-444.34,-1.65,16.98,0.09,
05/25/2025,21:14:17.89,-886.72,-201.17,-485.35,-1.28,19.79,-5.98,
05/25/2025,21:14:17.91,-847.66,-191.89,-472.17,-0.24,25.73,-4.30,
05/25/2025,21:14:17.93,-832.03,-177.73,-500.00,3.78,8.96,-2.62,
05/25/2025,21:14:17.95,-827.15,-177.73,-532.23,5.67,-1.52,-1.80,
05/25/2025,21:14:17.97,-773.93,-148.93,-564.94,6.62,18.96,2.01,
05/25/2025,21:14:17.99,-857.91,-185.06,-516.11,13.66,36.98,13.45,
05/25/2025,21:14:18.01,-911.62,-212.89,-481.93,11.98,19.24,7.04,
05/25/2025,21:14:18.03,-858.89,-217.77,-440.43,4.54,11.89,0.03,
05/25/2025,21:14:18.08,-892.09,-233.40,-500.98,-15.73,71.28,7.96,
05/25/2025,21:14:18.10,-877.93,-219.24,-404.79,3.14,62.62,10.12,
05/25/2025,21:14:18.12,-846.19,-199.22,-424.80,20.49,74.51,1.89,
05/25/2025,21:14:18.14,-748.54,-208.50,-502.44,-0.55,97.20,13.02,
05/25/2025,21:14:18.16,-801.27,-213.87,-606.45,-6.92,98.66,11.55,
05/25/2025,21:14:18.18,-791.99,-197.75,-635.25,0.82,91.77,8.32,
05/25/2025,21:14:18.20,-754.39,-191.89,-677.25,4.21,85.06,-0.55,
05/25/2025,21:14:18.22,-720.21,-160.16,-678.71,1.74,77.47,-3.63,
05/25/2025,21:14:18.24,-709.47,-170.90,-705.57,1.28,72.10,-4.24,
05/25/2025,21:14:18.26,-722.17,-162.11,-717.77,10.61,21.19,-5.95,
05/25/2025,21:14:18.28,-721.68,-162.60,-688.96,4.82,21.01,-12.65,
05/25/2025,21:14:18.30,-567.87,-175.78,-758.79,11.40,14.45,-10.03,
05/25/2025,21:14:18.32,-712.40,-248.05,-683.11,13.87,37.41,-1.68,
05/25/2025,21:14:18.34,-680.66,-221.19,-728.52,6.86,33.96,-14.42,
05/25/2025,21:14:18.36,-653.32,-219.24,-769.04,10.55,29.97,-11.83,
05/25/2025,21:14:18.38,-614.75,-222.66,-763.18,9.21,28.05,-9.73,
05/25/2025,21:14:18.40,-635.74,-206.05,-771.97,13.20,38.75,-1.68,
05/25/2025,21:14:18.42,-648.44,-225.10,-723.63,13.38,37.47,-5.61,
05/25/2025,21:14:18.44,-649.41,-244.63,-744.63,9.88,35.52,-1.74,
05/25/2025,21:14:18.46,-589.36,-255.86,-786.13,8.26,38.69,2.26,
05/25/2025,21:14:18.48,-608.40,-229.49,-735.35,9.48,33.75,-2.62,
05/25/2025,21:14:18.50,-583.01,-221.68,-685.55,-3.78,88.20,7.16,
05/25/2025,21:14:18.52,-647.46,-255.37,-751.46,-9.24,147.59,10.85,
05/25/2025,21:14:18.54,-622.56,-211.91,-562.99,-20.79,181.19,6.07,
05/25/2025,21:14:18.59,-419.92,-205.08,-891.60,-1.89,140.27,4.60,
05/25/2025,21:14:18.61,-396.48,-215.33,-919.92,0.58,103.78,5.34,
05/25/2025,21:14:18.63,-316.41,-220.70,-945.31,-3.90,89.48,3.05,
05/25/2025,21:14:18.65,-323.24,-195.31,-951.66,-0.27,66.10,4.02,
05/25/2025,21:14:18.67,-300.78,-201.66,-949.22,0.34,56.62,15.88,
05/25/2025,21:14:18.69,-273.93,-205.08,-1011.72,1.40,67.56,10.85,
05/25/2025,21:14:18.71,-308.59,-201.17,-982.42,5.46,54.66,3.72,
05/25/2025,21:14:18.73,-277.34,-199.22,-977.54,8.41,33.84,2.90,
05/25/2025,21:14:18.75,-237.79,-203.61,-965.82,5.43,16.04,0.21,
05/25/2025,21:14:18.77,-214.36,-201.17,-963.87,1.22,23.20,-4.27,
05/25/2025,21:14:18.79,-216.80,-195.80,-975.59,4.45,23.20,0.49,
05/25/2025,21:14:18.81,-200.68,-198.73,-975.59,4.91,18.20,0.27,
05/25/2025,21:14:18.83,-214.36,-213.87,-958.98,3.26,14.42,0.46,
05/25/2025,21:14:18.85,-196.29,-209.96,-969.24,2.47,13.81,1.65,
05/25/2025,21:14:18.87,-187.99,-208.50,-970.70,3.54,12.10,-0.55,
05/25/2025,21:14:18.89,-195.31,-198.73,-988.77,3.84,10.15,4.02,
05/25/2025,21:14:18.91,-195.31,-202.64,-979.00,3.51,5.82,-0.76,
05/25/2025,21:14:18.93,-196.78,-208.01,-984.86,3.41,-0.46,2.84,
05/25/2025,21:14:18.95,-197.27,-218.75,-985.84,7.77,2.07,-0.21,
05/25/2025,21:14:18.97,-187.99,-219.73,-966.31,12.01,2.16,-0.73,
05/25/2025,21:14:18.99,-180.66,-226.07,-955.08,14.88,-0.18,-1.98,
05/25/2025,21:14:19.01,-172.85,-228.52,-939.45,13.99,-6.34,5.46,
05/25/2025,21:14:19.03,-171.39,-224.61,-968.26,13.63,-11.55,1.65,
05/25/2025,21:14:19.05,-150.39,-229.98,-961.91,13.14,-4.73,3.14,
05/25/2025,21:14:19.10,-205.57,-221.68,-936.52,-1.25,-1.22,7.29,
05/25/2025,21:14:19.12,-204.59,-211.43,-931.64,-3.11,-1.98,6.52,
05/25/2025,21:14:19.14,-211.43,-218.75,-944.82,-2.84,-29.18,-3.26,
05/25/2025,21:14:19.16,-226.56,-259.28,-875.00,-6.07,-68.48,-20.24,
05/25/2025,21:14:19.18,-234.86,-256.84,-1022.46,10.82,-57.99,6.80,
05/25/2025,21:14:19.20,-134.77,-219.73,-1045.41,13.02,-33.81,7.23,
05/25/2025,21:14:19.22,-305.18,-260.25,-896.48,18.08,-16.62,9.76,
05/25/2025,21:14:19.24,-265.62,-247.56,-899.41,10.30,-17.77,-0.61,
05/25/2025,21:14:19.26,-191.89,-229.98,-978.52,10.40,0.46,6.80,
05/25/2025,21:14:19.28,-107.91,-269.04,-1015.62,15.49,37.71,19.91,
05/25/2025,21:14:19.30,-312.50,-321.78,-861.33,10.64,39.85,25.55,
05/25/2025,21:14:19.32,-104.00,-300.29,-863.77,11.92,64.05,6.01,
05/25/2025,21:14:19.34,-376.46,-247.07,-1077.15,42.99,-103.11,15.06,
05/25/2025,21:14:19.36,-262.21,-274.90,-824.71,37.38,-40.79,16.86,
05/25/2025,21:14:19.38,-116.21,-273.44,-785.16,-36.01,-281.31,18.54,
05/25/2025,21:14:19.40,-340.82,-267.58,-780.27,-52.35,-171.55,49.33,
05/25/2025,21:14:19.42,-472.17,-238.77,-760.74,-51.01,-117.35,39.33,
05/25/2025,21:14:19.44,-565.43,-204.10,-768.55,-66.13,-149.88,43.20,
05/25/2025,21:14:19.46,-696.78,-212.40,-956.54,-59.85,-172.01,32.29,
05/25/2025,21:14:19.48,-562.01,-139.16,-1002.44,6.52,-80.58,19.30,
05/25/2025,21:14:19.50,-623.05,-87.89,-873.05,1.80,-70.73,25.21,
05/25/2025,21:14:19.52,-733.40,-53.71,-882.32,8.20,-50.98,36.13,
05/25/2025,21:14:19.54,-777.34,-172.36,-787.11,8.41,7.35,21.83,
05/25/2025,21:14:19.56,-545.90,12.70,-879.39,-22.47,-22.80,41.46,
05/25/2025,21:14:19.61,-729.00,-99.61,-642.58,-15.06,-30.79,6.68,
05/25/2025,21:14:19.63,-643.55,-125.49,-1120.61,12.53,22.47,-9.39,
05/25/2025,21:14:19.65,-721.68,-64.45,-610.35,26.34,-31.86,-3.54,
05/25/2025,21:14:19.67,-709.96,-84.47,-775.88,-0.73,-76.28,-12.50,
05/25/2025,21:14:19.69,-755.37,-127.93,-735.35,9.09,-137.77,-13.66,
05/25/2025,21:14:19.71,-812.99,-146.97,-756.35,19.27,-139.30,-26.92,
05/25/2025,21:14:19.73,-916.50,-166.02,-627.93,26.31,-179.48,-50.82,
05/25/2025,21:14:19.75,-844.24,-182.62,-613.28,31.74,-198.08,-42.23,
05/25/2025,21:14:19.77,-779.30,-210.94,-579.10,24.02,-163.35,-26.04,
05/25/2025,21:14:19.79,-812.99,-192.38,-372.07,27.56,-120.18,-3.84,
05/25/2025,21:14:19.81,-896.48,-210.94,-421.39,35.34,-152.04,14.97,
05/25/2025,21:14:19.83,-961.91,-206.05,-320.80,29.82,-175.91,-3.57,
05/25/2025,21:14:19.85,-948.24,-224.12,-247.56,27.13,-146.16,-10.03,
05/25/2025,21:14:19.87,-844.24,-241.21,-178.22,9.15,-143.32,-5.98,
05/25/2025,21:14:19.89,-972.17,-265.62,-100.10,-18.48,-159.02,2.71,
05/25/2025,21:14:19.91,-954.59,-245.12,-267.09,-17.10,-152.26,1.25,
05/25/2025,21:14:19.93,-961.91,-257.32,-132.32,0.49,-114.05,5.18,
05/25/2025,21:14:19.95,-988.77,-220.70,253.42,-25.21,-84.91,7.93,
05/25/2025,21:14:19.97,-1374.02,-281.25,80.08,-79.36,-245.55,-48.02,
05/25/2025,21:14:19.99,-747.56,-215.33,47.36,-14.54,-245.43,-64.33,
05/25/2025,21:14:20.01,-978.03,-187.01,62.50,-6.07,-141.89,1.04,
05/25/2025,21:14:20.03,-872.56,-167.97,114.26,-15.34,-86.65,15.34,
05/25/2025,21:14:20.05,-968.75,-219.73,60.06,-8.45,-70.34,9.39,
05/25/2025,21:14:20.07,-829.10,276.86,-128.42,6.92,-71.55,19.33,
05/25/2025,21:14:20.12,-846.68,-145.02,272.46,-5.79,-52.16,28.02,
05/25/2025,21:14:20.14,-928.71,-218.75,197.27,12.56,-25.64,11.07,
05/25/2025,21:14:20.16,-791.50,-159.18,179.20,25.82,-35.03,24.21,
05/25/2025,21:14:20.18,-913.09,-176.27,215.33,55.18,-37.44,21.07,
05/25/2025,21:14:20.20,-1000.49,-198.73,309.57,48.51,-32.80,19.91,
05/25/2025,21:14:20.22,-1114.75,-192.87,399.41,40.06,-47.47,5.67,
05/25/2025,21:14:20.24,-710.45,-65.92,586.43,58.60,-56.34,4.02,
05/25/2025,21:14:20.26,-953.12,-137.70,385.25,52.96,-24.48,21.77,
05/25/2025,21:14:20.28,-978.52,-97.17,389.65,51.04,2.44,10.06,
05/25/2025,21:14:20.30,-989.26,-108.40,479.00,28.41,17.35,-6.86,
05/25/2025,21:14:20.32,-971.19,-111.33,523.93,-1.59,6.68,-19.33,
05/25/2025,21:14:20.34,-958.50,-156.25,504.39,-31.98,-17.71,-30.91,
05/25/2025,21:14:20.36,-1010.25,-120.61,526.86,-59.60,72.68,-58.23,
05/25/2025,21:14:20.38,-895.02,-173.34,438.96,-83.90,79.02,-78.72,
05/25/2025,21:14:20.40,-820.80,-319.34,-271.48,-58.29,9.73,-64.09,
05/25/2025,21:14:20.42,-928.71,-259.77,138.67,-29.94,28.05,-69.36,
05/25/2025,21:14:20.44,-917.48,-231.45,292.48,-32.53,18.02,-93.11,
05/25/2025,21:14:20.46,-810.55,-588.38,257.81,-13.45,58.54,-164.51,
05/25/2025,21:14:20.48,-797.85,-445.31,19.04,-49.24,31.83,-148.96,
05/25/2025,21:14:20.50,-538.57,-522.95,1142.09,-31.86,139.66,-34.54,
05/25/2025,21:14:20.52,-955.57,-512.70,92.77,-34.27,-15.30,-6.59,
05/25/2025,21:14:20.54,-975.59,-485.35,221.68,-15.70,-15.95,-5.55,
05/25/2025,21:14:20.56,-955.57,-457.03,201.17,-16.65,11.74,-4.51,
05/25/2025,21:14:20.58,-1022.46,-458.01,135.25,-42.16,34.12,-12.80,
05/25/2025,21:14:20.63,-898.44,-392.58,127.93,-42.77,88.78,25.03,
05/25/2025,21:14:20.65,-854.00,-470.70,-32.71,-31.49,85.98,56.49,
05/25/2025,21:14:20.67,-850.59,-545.41,482.91,7.65,-50.27,67.41,
05/25/2025,21:14:20.69,-974.12,-437.01,111.82,8.08,-13.20,34.91,
05/25/2025,21:14:20.71,-794.43,-397.95,123.05,3.93,-87.13,16.28,
05/25/2025,21:14:20.73,-1001.95,-460.45,35.64,9.54,-53.14,34.33,
05/25/2025,21:14:20.75,-924.80,-416.99,209.96,21.31,-17.74,32.01,
05/25/2025,21:14:20.77,-990.72,-422.85,265.62,31.59,-21.98,17.53,
05/25/2025,21:14:20.79,-908.69,-406.74,133.79,34.63,-11.43,22.44,
05/25/2025,21:14:20.81,-880.86,-335.94,166.02,30.73,-0.55,10.24,
05/25/2025,21:14:20.83,-923.83,-224.61,180.66,19.85,29.63,-4.45,
05/25/2025,21:14:20.85,-904.79,-233.89,183.59,14.24,57.04,4.15,
05/25/2025,21:14:20.87,-881.84,-141.11,74.22,104.36,-19.70,26.86,
05/25/2025,21:14:20.89,-992.68,-317.38,159.18,66.34,-25.03,15.70,
05/25/2025,21:14:20.91,-952.15,-254.88,205.08,88.51,-57.77,14.33,
05/25/2025,21:14:20.93,-970.21,-261.72,209.47,86.52,-44.45,-8.66,
05/25/2025,21:14:20.95,-976.56,-258.79,249.51,71.40,-36.98,-36.19,
05/25/2025,21:14:20.98,-944.82,-236.82,203.12,88.90,-19.97,-70.76,
05/25/2025,21:14:21.00,-889.65,-171.88,230.96,103.17,-1.25,-73.14,
05/25/2025,21:14:21.02,-969.73,-227.05,316.89,111.62,24.66,-85.00,
05/25/2025,21:14:21.04,-1009.77,-343.26,392.58,116.34,22.87,-100.43,
05/25/2025,21:14:21.06,-950.20,-408.69,307.13,134.30,7.32,-114.42,
05/25/2025,21:14:21.08,-944.34,-481.45,248.05,192.74,-11.07,-155.00,
05/25/2025,21:14:21.10,-875.49,-479.49,401.37,210.30,3.51,-160.12,
05/25/2025,21:14:21.15,-760.25,-498.54,426.27,60.34,-32.29,-57.04,
05/25/2025,21:14:21.17,-733.40,-439.94,451.66,47.56,-18.26,-41.34,
05/25/2025,21:14:21.19,-749.51,-377.93,489.75,39.42,-4.79,-23.96,
05/25/2025,21:14:21.21,-774.41,-367.19,502.93,21.34,-9.88,-13.63,
05/25/2025,21:14:21.23,-791.50,-401.86,443.85,9.05,1.04,-5.43,
05/25/2025,21:14:21.25,-792.97,-398.93,457.52,4.82,9.30,-7.47,
05/25/2025,21:14:21.27,-779.30,-401.86,457.03,-3.14,10.03,-8.75,
05/25/2025,21:14:21.29,-777.34,-415.53,454.10,-8.35,6.80,-5.76,
05/25/2025,21:14:21.31,-772.95,-432.62,455.57,-6.98,5.52,-5.95,
05/25/2025,21:14:21.33,-772.95,-452.15,437.50,-3.93,4.94,-4.82,
05/25/2025,21:14:21.35,-761.23,-454.10,447.27,-0.06,3.41,2.07,
05/25/2025,21:14:21.37,-751.46,-431.64,451.17,5.98,1.80,2.59,
05/25/2025,21:14:21.39,-784.67,-439.45,442.38,7.84,4.09,-2.01,
05/25/2025,21:14:21.41,-773.44,-472.17,464.36,7.50,0.30,1.37,
05/25/2025,21:14:21.43,-781.25,-526.86,562.99,0.82,-9.70,3.14,
05/25/2025,21:14:21.45,-774.90,-527.83,541.99,-11.22,-17.87,10.82,
05/25/2025,21:14:21.48,-783.69,-501.46,508.79,-10.30,-12.93,18.96,
05/25/2025,21:14:21.50,-776.37,-499.02,499.51,-6.43,-7.07,16.65,
05/25/2025,21:14:21.52,-778.32,-465.33,462.89,-4.21,-2.13,14.57,
05/25/2025,21:14:21.54,-789.06,-392.58,453.12,-2.96,12.74,15.58,
05/25/2025,21:14:21.56,-818.85,-368.16,458.98,-4.54,10.73,7.59,
05/25/2025,21:14:21.58,-784.67,-407.71,467.29,-8.66,6.46,-2.62,
05/25/2025,21:14:21.60,-769.53,-449.71,431.15,-8.26,7.07,-3.84,
05/25/2025,21:14:21.62,-743.16,-430.66,393.07,-5.49,4.91,-2.04,
05/25/2025,21:14:21.68,-754.39,-419.92,411.62,-1.19,2.20,0.37,
05/25/2025,21:14:21.70,-760.25,-416.02,416.50,0.49,1.28,-6.89,
05/25/2025,21:14:21.72,-748.54,-427.25,393.55,4.30,0.91,-9.48,
05/25/2025,21:14:21.74,-760.74,-444.82,411.13,3.32,2.10,-3.75,
05/25/2025,21:14:21.76,-743.65,-433.11,408.20,1.31,-0.67,-10.40,
05/25/2025,21:14:21.78,-740.72,-457.52,400.88,4.24,0.49,-6.16,
05/25/2025,21:14:21.80,-768.07,-466.31,409.67,7.68,0.67,-5.91,
05/25/2025,21:14:21.82,-775.39,-472.17,440.92,7.16,-4.39,-2.44,
05/25/2025,21:14:21.84,-797.85,-457.03,456.54,6.65,-4.39,2.87,
05/25/2025,21:14:21.86,-806.15,-455.57,473.14,5.34,-1.10,2.59,
05/25/2025,21:14:21.88,-791.50,-445.31,493.16,2.53,1.31,1.43,
05/25/2025,21:14:21.90,-808.11,-434.08,481.45,4.33,4.30,1.19,
05/25/2025,21:14:21.92,-799.80,-439.94,472.66,2.50,5.95,-0.46,
05/25/2025,21:14:21.94,-789.55,-426.76,458.50,2.99,7.20,-2.38,
05/25/2025,21:14:21.96,-795.90,-421.88,467.77,3.14,7.23,-3.69,
05/25/2025,21:14:21.98,-770.02,-444.82,440.43,1.31,6.34,-4.60,
05/25/2025,21:14:22.00,-760.25,-454.59,447.27,3.26,6.77,-3.84,
05/25/2025,21:14:22.02,-767.58,-475.59,439.45,1.55,7.62,-3.29,
05/25/2025,21:14:22.04,-751.95,-481.45,428.71,1.22,7.84,0.52,
05/25/2025,21:14:22.06,-782.71,-464.84,452.64,0.27,3.84,-1.49,
05/25/2025,21:14:22.08,-783.69,-462.89,467.29,-4.15,4.33,-2.53,
05/25/2025,21:14:22.11,-790.04,-472.17,479.98,-3.05,2.29,-2.99,
05/25/2025,21:14:22.13,-778.81,-458.50,470.21,-2.71,1.89,0.64,
05/25/2025,21:14:22.18,-781.25,-448.73,436.52,2.32,5.91,5.64,
05/25/2025,21:14:22.20,-789.55,-434.57,416.99,2.99,3.23,-1.34,
05/25/2025,21:14:22.22,-789.06,-420.41,420.41,3.08,5.09,1.28,
05/25/2025,21:14:22.24,-788.09,-447.75,418.46,4.94,5.00,-1.49,
05/25/2025,21:14:22.26,-788.57,-451.17,440.92,3.02,2.41,-0.49,
05/25/2025,21:14:22.28,-798.34,-458.50,435.55,0.46,1.98,-1.19,
05/25/2025,21:14:22.30,-804.69,-450.68,465.33,0.88,1.13,-0.88,
05/25/2025,21:14:22.32,-802.73,-452.64,471.68,-0.88,5.21,-1.86,
05/25/2025,21:14:22.34,-797.85,-468.75,458.50,0.70,6.28,-0.61,
05/25/2025,21:14:22.36,-799.80,-459.47,478.03,-0.76,1.52,-0.21,
05/25/2025,21:14:22.38,-784.18,-474.61,477.05,-2.32,5.21,-1.31,
05/25/2025,21:14:22.40,-758.30,-466.31,451.17,-1.49,7.26,-2.32,
05/25/2025,21:14:22.42,-747.07,-461.91,423.34,-2.90,6.22,-3.26,
05/25/2025,21:14:22.44,-745.61,-462.89,420.90,-0.52,7.10,-2.41,
05/25/2025,21:14:22.46,-736.33,-468.26,414.06,-1.92,7.59,-2.16,
05/25/2025,21:14:22.48,-734.38,-448.73,389.16,-3.87,8.14,-3.26,
05/25/2025,21:14:22.50,-751.46,-448.24,385.25,-3.96,7.47,-1.49,
05/25/2025,21:14:22.52,-763.18,-466.31,372.07,-4.57,7.38,-4.63,
05/25/2025,21:14:22.54,-750.00,-483.40,357.42,-1.01,5.27,-0.09,
05/25/2025,21:14:22.56,-797.85,-454.59,354.00,-3.90,0.76,2.87,
05/25/2025,21:14:22.59,-826.17,-388.67,378.91,-10.73,16.55,5.06,
05/25/2025,21:14:22.61,-866.70,-454.59,392.09,-30.88,36.07,8.84,
05/25/2025,21:14:22.63,-864.26,-446.78,369.14,-20.03,50.49,11.68,
05/25/2025,21:14:22.65,-878.42,-574.22,435.55,-60.09,51.49,21.55,
05/25/2025,21:14:22.70,-835.94,-355.96,598.14,-406.16,-42.44,-36.80,
05/25/2025,21:14:22.72,-639.65,-546.88,152.83,-454.27,39.60,64.21,
05/25/2025,21:14:22.74,-841.80,-471.19,-40.53,-413.93,89.63,28.60,
05/25/2025,21:14:22.76,-898.44,-581.54,-82.52,-353.93,94.21,31.92,
05/25/2025,21:14:22.78,-845.21,-547.85,-169.43,-334.02,95.70,39.88,
05/25/2025,21:14:22.80,-805.66,-451.66,-242.19,-322.53,65.12,28.75,
05/25/2025,21:14:22.82,-986.33,-420.90,-181.64,-347.10,114.45,4.57,
05/25/2025,21:14:22.84,-863.28,-440.92,-388.67,-249.94,116.98,-35.79,
05/25/2025,21:14:22.86,-850.10,-464.36,-529.79,-219.54,123.93,-23.51,
05/25/2025,21:14:22.88,-939.94,-494.14,-534.67,-163.66,100.88,-20.64,
05/25/2025,21:14:22.90,-866.21,-490.23,-721.68,-117.35,54.36,-17.07,
05/25/2025,21:14:22.92,-732.91,-418.46,-681.15,-61.71,56.52,8.32,
05/25/2025,21:14:22.94,-771.00,-361.33,-604.49,-61.59,41.74,30.58,
05/25/2025,21:14:22.96,-727.54,-366.70,-698.24,-39.09,23.63,28.66,
05/25/2025,21:14:22.98,-533.69,-372.07,-723.14,2.59,21.07,57.41,
05/25/2025,21:14:23.00,-658.20,-325.68,-741.70,82.29,90.64,127.04,
05/25/2025,21:14:23.02,-1039.55,-380.86,-629.39,59.45,52.29,119.39,
05/25/2025,21:14:23.04,-934.08,-253.91,-473.14,6.68,42.65,60.27,
05/25/2025,21:14:23.06,-684.57,-241.70,-739.75,13.75,-10.91,2.59,
05/25/2025,21:14:23.08,-666.02,-247.56,-581.54,-0.70,1.77,-7.44,
05/25/2025,21:14:23.10,-573.73,-188.96,-618.16,-24.48,13.35,12.87,
05/25/2025,21:14:23.13,-517.58,-5.37,-725.10,-30.37,50.55,1.71,
05/25/2025,21:14:23.15,-627.44,-284.67,-677.73,-23.29,42.26,-14.88,
05/25/2025,21:14:23.17,-563.96,-336.91,-487.79,-17.04,72.84,-15.40,
05/25/2025,21:14:23.21,-566.89,-333.50,-734.86,-9.54,50.67,29.88,
05/25/2025,21:14:23.23,-777.83,-364.26,-1175.78,34.45,-26.10,40.30,
05/25/2025,21:14:23.25,-487.30,-43.46,-810.06,17.87,16.80,30.85,
05/25/2025,21:14:23.27,-437.01,-58.59,-913.57,13.48,48.57,25.88,
05/25/2025,21:14:23.29,-651.86,-162.11,-828.61,19.51,28.14,30.76,
05/25/2025,21:14:23.32,-814.94,-189.45,-874.51,11.95,-4.18,20.67,
05/25/2025,21:14:23.34,-724.12,-167.48,-791.99,36.28,-27.07,-9.15,
05/25/2025,21:14:23.36,-607.91,-267.09,-522.46,52.38,15.09,2.07,
05/25/2025,21:14:23.38,-593.26,-86.43,-557.62,-3.38,67.80,14.30,
05/25/2025,21:14:23.40,-642.58,-47.36,-1271.48,20.09,45.61,-11.62,
05/25/2025,21:14:23.42,-517.58,-103.52,-642.58,41.01,47.56,-63.90,
05/25/2025,21:14:23.44,-279.79,-53.71,-645.02,25.70,53.99,-54.57,
05/25/2025,21:14:23.46,-441.89,-24.41,-514.65,-17.50,79.24,-34.15,
05/25/2025,21:14:23.48,-567.38,-170.41,-915.53,-42.53,-9.76,-64.09,
05/25/2025,21:14:23.50,-536.62,-136.72,-840.33,-4.51,-92.96,-56.28,
05/25/2025,21:14:23.52,-694.34,-258.79,-168.46,-12.53,-3.51,11.71,
05/25/2025,21:14:23.54,-1018.55,-280.27,-961.91,-106.37,85.30,-3.99,
05/25/2025,21:14:23.56,-733.40,-322.75,-1173.83,45.40,-26.28,-23.29,
05/25/2025,21:14:23.58,-528.81,-204.10,-613.28,10.67,-12.53,-24.05,
05/25/2025,21:14:23.60,-504.39,-83.01,-807.62,-116.49,-76.46,12.16,
05/25/2025,21:14:23.62,-242.68,-298.83,-993.16,-42.90,5.70,27.77,
05/25/2025,21:14:23.64,-937.99,-443.36,-1024.90,40.37,-94.66,44.27,
05/25/2025,21:14:23.66,-1083.98,-340.33,-1277.83,115.24,-249.15,8.17,
05/25/2025,21:14:23.68,-1265.62,-136.23,-1063.48,158.72,-345.61,-59.73,
05/25/2025,21:14:23.73,797.85,-462.40,-194.34,228.32,-327.23,-314.54,
05/25/2025,21:14:23.75,-12.21,-526.86,-200.68,-101.49,-40.67,-67.93,
05/25/2025,21:14:23.77,-514.16,-685.06,-323.24,-39.79,101.55,-4.82,
05/25/2025,21:14:23.79,-910.16,-707.52,-190.92,-51.65,101.43,-4.21,
05/25/2025,21:14:23.81,-508.79,-544.92,-377.93,-15.91,111.01,-10.12,
05/25/2025,21:14:23.83,-477.54,-507.81,-659.18,-12.13,192.32,11.04,
05/25/2025,21:14:23.85,-411.13,-321.29,161.13,-146.43,-24.97,76.43,
05/25/2025,21:14:23.87,-961.91,-666.02,-466.80,12.65,195.82,85.55,
05/25/2025,21:14:23.89,-1133.30,-787.11,138.18,-95.58,92.59,3.05,
05/25/2025,21:14:23.91,-364.26,-598.14,-944.34,-136.25,129.63,5.15,
05/25/2025,21:14:23.93,-583.01,-518.07,-829.59,-31.43,96.43,25.79,
05/25/2025,21:14:23.95,-783.20,-545.90,-343.26,-95.55,194.39,-23.38,
05/25/2025,21:14:23.97,-1083.01,-169.92,5.37,105.64,657.56,-31.31,
05/25/2025,21:14:23.99,-498.54,-570.31,-645.02,93.41,19.60,-67.71,
05/25/2025,21:14:24.01,-597.66,-586.91,-638.67,44.12,103.72,-50.91,
05/25/2025,21:14:24.03,-425.29,-522.46,-575.68,38.84,-48.26,86.59,
05/25/2025,21:14:24.05,-432.62,-493.16,-750.98,66.92,-15.37,32.77,
05/25/2025,21:14:24.07,-456.54,-402.34,-834.96,24.05,15.18,-115.95,
05/25/2025,21:14:24.09,-484.86,-670.41,-826.17,10.06,22.26,-150.49,
05/25/2025,21:14:24.11,-316.89,-606.45,-952.15,-30.43,-27.84,-151.19,
05/25/2025,21:14:24.13,-193.36,-751.46,-791.50,5.64,-49.76,-142.56,
05/25/2025,21:14:24.15,-308.11,-601.56,-867.68,36.80,-34.63,-134.24,
05/25/2025,21:14:24.17,-334.96,-636.23,-772.95,44.60,-41.65,-137.38,
05/25/2025,21:14:24.19,-340.82,-634.77,-691.89,-3.69,-103.54,-154.66,
05/25/2025,21:14:24.24,-184.57,-627.93,-941.89,-85.15,58.02,-74.30,
05/25/2025,21:14:24.26,-419.43,-592.29,-717.77,-6.95,80.91,21.52,
05/25/2025,21:14:24.28,-161.62,-552.73,-931.15,-60.09,103.87,9.09,
05/25/2025,21:14:24.30,-234.38,-819.82,-1050.29,16.62,112.93,-4.91,
05/25/2025,21:14:24.32,-312.01,-517.58,-728.52,2.53,104.12,-13.41,
05/25/2025,21:14:24.34,-361.82,-706.54,-992.68,1.55,60.58,-70.03,
05/25/2025,21:14:24.36,-166.99,-697.75,-856.93,59.05,15.00,-90.30,
05/25/2025,21:14:24.38,13.18,-706.05,-833.98,35.12,-112.38,-121.92,
05/25/2025,21:14:24.40,-150.39,-616.70,-784.67,5.64,-10.30,-67.87,
05/25/2025,21:14:24.42,21.97,-445.80,-751.95,7.80,-36.68,-84.48,
05/25/2025,21:14:24.44,-146.48,-599.61,-708.50,11.59,-36.37,-83.87,
05/25/2025,21:14:24.46,50.78,-646.48,-741.21,14.63,-32.07,-70.12,
05/25/2025,21:14:24.48,-103.52,-647.95,-641.11,7.87,-61.04,-102.93,
05/25/2025,21:14:24.50,-112.79,-802.73,-881.84,-25.82,-45.34,-73.69,
05/25/2025,21:14:24.52,-168.46,-636.72,-1001.95,47.44,-188.54,-153.78,
05/25/2025,21:14:24.54,83.50,-461.91,-473.63,83.05,-323.17,-199.05,
05/25/2025,21:14:24.56,7.32,-520.51,-541.02,-100.85,-170.09,-192.44,
05/25/2025,21:14:24.58,-169.92,-640.62,-992.68,-106.71,-163.78,-209.09,
05/25/2025,21:14:24.60,-60.55,-521.97,-932.62,-85.30,-233.78,-191.37,
05/25/2025,21:14:24.62,-3.91,-546.39,-818.36,-83.81,-137.04,-158.29,
05/25/2025,21:14:24.64,-60.55,-577.64,-941.89,-61.16,-125.85,-129.33,
05/25/2025,21:14:24.66,-69.82,-585.94,-704.59,-67.01,-89.36,-105.70,
05/25/2025,21:14:24.68,-60.55,-563.96,-753.91,-98.87,6.13,-80.85,
05/25/2025,21:14:24.70,-89.36,-530.27,-1014.16,-102.53,103.96,-62.84,
05/25/2025,21:14:24.75,76.17,-498.05,-851.07,-41.83,146.71,-24.82,
05/25/2025,21:14:24.77,154.30,-533.20,-849.12,-39.45,169.60,-24.36,
05/25/2025,21:14:24.79,183.11,-424.32,-901.86,-55.12,188.45,-26.74,
05/25/2025,21:14:24.81,204.10,-451.17,-960.45,-18.17,120.40,-25.18,
05/25/2025,21:14:24.83,256.35,-441.89,-836.91,-26.43,112.74,-23.90,
05/25/2025,21:14:24.85,293.95,-401.37,-915.53,-23.41,73.17,-18.08,
05/25/2025,21:14:24.87,273.44,-380.86,-878.42,-23.69,40.91,-20.58,
05/25/2025,21:14:24.89,301.27,-380.37,-943.85,-13.57,14.91,-22.20,
05/25/2025,21:14:24.91,292.97,-350.59,-912.60,-9.21,3.99,-22.99,
05/25/2025,21:14:24.93,314.45,-388.18,-917.97,-2.80,-4.09,-27.99,
05/25/2025,21:14:24.95,364.26,-379.88,-957.52,-2.68,-1.92,-21.92,
05/25/2025,21:14:24.97,343.75,-339.84,-927.25,7.77,3.93,-16.83,
05/25/2025,21:14:24.99,334.96,-346.68,-907.71,18.23,-6.62,-18.66,
05/25/2025,21:14:25.01,328.61,-380.86,-851.56,16.77,-10.64,-9.42,
05/25/2025,21:14:25.03,256.35,-375.49,-871.09,12.29,6.46,-3.51,
05/25/2025,21:14:25.05,288.09,-396.48,-896.00,14.54,9.12,-12.84,
05/25/2025,21:14:25.07,316.89,-405.76,-860.35,17.20,17.90,-4.12,
05/25/2025,21:14:25.09,320.31,-392.58,-814.94,-3.23,19.45,2.26,
05/25/2025,21:14:25.11,358.89,-449.71,-886.23,-12.20,14.05,11.04,
05/25/2025,21:14:25.13,346.19,-430.18,-902.34,-17.74,8.69,10.70,
05/25/2025,21:14:25.15,323.24,-422.36,-950.68,-5.15,0.30,6.25,
05/25/2025,21:14:25.17,346.19,-405.27,-886.72,4.36,4.60,-0.15,
05/25/2025,21:14:25.19,339.36,-399.90,-891.60,4.45,9.33,1.52,
05/25/2025,21:14:25.21,339.84,-397.46,-875.49,-5.43,13.69,2.53,
05/25/2025,21:14:25.27,386.23,-369.14,-927.25,9.05,26.92,10.85,
05/25/2025,21:14:25.29,436.52,-354.98,-987.30,20.70,38.45,23.66,
05/25/2025,21:14:25.31,530.76,-351.56,-1064.45,67.38,70.00,69.15,
05/25/2025,21:14:25.33,587.40,-293.46,-1111.82,104.02,145.30,128.02,
05/25/2025,21:14:25.35,722.17,-259.28,-1283.69,191.83,207.38,225.46,
05/25/2025,21:14:25.37,986.82,-54.69,-615.23,245.40,173.26,281.34,
05/25/2025,21:14:25.39,518.55,-263.67,-554.20,244.09,287.35,395.27,
05/25/2025,21:14:25.41,96.19,-302.25,-61.04,165.88,276.19,431.65,
05/25/2025,21:14:25.43,264.16,-490.72,-223.63,25.00,311.40,483.14,
05/25/2025,21:14:25.45,77.64,-641.11,-159.67,-163.60,251.98,548.17,
05/25/2025,21:14:25.47,-152.34,-799.80,-414.55,-75.15,136.16,385.91,
05/25/2025,21:14:25.49,-232.42,-666.99,-328.61,-94.94,94.02,321.65,
05/25/2025,21:14:25.51,-490.23,-776.37,-511.72,-116.68,102.47,226.13,
05/25/2025,21:14:25.53,-629.39,-865.23,11.23,-155.21,6.04,147.77,
05/25/2025,21:14:25.55,2866.70,257.32,-332.52,-210.37,299.97,267.59,
05/25/2025,21:14:25.57,-617.19,-146.00,-1119.63,-214.82,193.51,544.60,
05/25/2025,21:14:25.59,-1266.60,-645.02,-1273.44,-130.03,102.41,339.09,
05/25/2025,21:14:25.61,-1120.61,-689.45,-1068.36,-59.63,50.64,138.69,
05/25/2025,21:14:25.63,-702.15,-592.77,-801.27,-44.27,33.78,47.87,
05/25/2025,21:14:25.65,-227.05,-424.32,-854.98,-45.49,48.20,14.97,
05/25/2025,21:14:25.67,-19.53,-355.96,-809.57,-18.81,52.41,77.35,
05/25/2025,21:14:25.69,-396.97,-432.13,-763.18,-50.34,59.15,110.34,
05/25/2025,21:14:25.71,-633.30,-478.03,-884.28,-55.34,31.77,77.84,
05/25/2025,21:14:25.73,-487.79,-396.97,-996.58,-46.28,25.67,25.88,
05/25/2025,21:14:25.78,-282.23,-295.90,-892.58,-12.13,49.18,29.09,
05/25/2025,21:14:25.80,-423.34,-359.86,-922.36,-10.76,60.98,19.42,
05/25/2025,21:14:25.82,-352.54,-350.10,-916.50,-14.54,70.52,2.87,
05/25/2025,21:14:25.84,-275.39,-339.84,-933.11,-5.09,35.27,2.56,
05/25/2025,21:14:25.86,-269.04,-329.59,-982.91,8.69,-4.57,0.85,
05/25/2025,21:14:25.88,-252.44,-330.08,-904.79,10.49,1.83,5.85,
05/25/2025,21:14:25.90,-283.20,-334.47,-941.89,5.03,-2.35,-2.50,
05/25/2025,21:14:25.92,-235.35,-314.45,-996.09,9.73,-35.03,2.53,
05/25/2025,21:14:25.94,-291.02,-336.91,-835.94,9.39,0.03,-6.89,
05/25/2025,21:14:25.96,-172.85,-318.36,-930.18,7.29,14.15,-6.46,
05/25/2025,21:14:25.98,-243.16,-342.29,-950.20,24.66,8.69,7.04,
05/25/2025,21:14:26.00,-293.46,-358.40,-852.54,15.34,29.94,2.10,
05/25/2025,21:14:26.02,-303.71,-374.51,-923.34,-1.28,55.21,-3.26,
05/25/2025,21:14:26.04,-334.47,-359.86,-729.49,25.88,33.26,20.73,
05/25/2025,21:14:26.06,-275.88,-373.05,-934.57,0.15,44.51,14.15,
05/25/2025,21:14:26.08,-270.02,-386.23,-987.79,-1.65,70.40,18.14,
05/25/2025,21:14:26.10,-554.69,-329.59,-805.18,-14.82,70.46,-11.71,
05/25/2025,21:14:26.12,-111.82,-369.14,-866.21,-6.16,72.04,-28.69,
05/25/2025,21:14:26.14,-78.61,-360.35,-979.00,-4.33,53.11,-0.55,
05/25/2025,21:14:26.16,-127.44,-380.86,-882.32,-2.04,57.41,-1.43,
05/25/2025,21:14:26.18,-107.91,-376.46,-940.92,-3.99,42.32,1.68,
05/25/2025,21:14:26.20,-102.54,-364.26,-944.34,5.91,30.73,10.67,
05/25/2025,21:14:26.22,-65.43,-376.46,-865.23,3.81,11.55,10.88,
05/25/2025,21:14:26.24,-107.42,-385.25,-865.23,0.46,-26.95,-0.15,
05/25/2025,21:14:26.29,-99.61,-332.52,-995.61,-6.62,1.25,10.12,
05/25/2025,21:14:26.31,-82.03,-318.85,-912.60,-18.35,27.41,23.35,
05/25/2025,21:14:26.33,-222.17,-370.12,-1029.30,-0.46,5.27,-30.30,
05/25/2025,21:14:26.35,-104.49,-321.29,-1003.42,4.18,-8.84,-3.41,
05/25/2025,21:14:26.37,-125.98,-333.01,-949.71,5.40,7.90,4.45,
05/25/2025,21:14:26.39,-104.98,-345.70,-919.43,4.15,10.91,4.48,
05/25/2025,21:14:26.41,-77.64,-351.56,-877.93,-3.35,1.43,5.82,
05/25/2025,21:14:26.43,-96.68,-347.17,-913.09,-6.04,-4.63,13.90,
05/25/2025,21:14:26.45,-154.79,-337.89,-951.17,-14.51,11.31,12.90,
05/25/2025,21:14:26.48,-185.06,-354.98,-982.91,-9.39,9.60,6.10,
05/25/2025,21:14:26.50,-147.95,-343.75,-973.63,-2.96,5.46,-3.23,
05/25/2025,21:14:26.52,-102.05,-333.01,-891.11,-9.91,7.23,-4.12,
05/25/2025,21:14:26.54,-122.07,-334.96,-979.00,-13.45,5.67,-1.92,
05/25/2025,21:14:26.56,-141.11,-346.68,-1005.37,-5.49,-5.70,2.56,
05/25/2025,21:14:26.58,-111.82,-313.96,-1008.30,0.06,3.02,-0.79,
05/25/2025,21:14:26.60,-112.30,-331.05,-963.87,-1.52,12.10,4.30,
05/25/2025,21:14:26.62,-128.91,-328.12,-990.72,-1.40,3.84,10.91,
05/25/2025,21:14:26.64,-167.97,-336.91,-969.73,-1.13,5.15,6.04,
05/25/2025,21:14:26.66,-146.00,-329.10,-999.51,-2.16,4.42,3.66,
05/25/2025,21:14:26.68,-130.37,-303.22,-1045.90,5.98,-5.76,2.35,
05/25/2025,21:14:26.70,-118.16,-316.41,-966.80,15.37,-11.89,1.10,
05/25/2025,21:14:26.72,-109.38,-320.31,-894.04,10.34,-11.59,0.85,
05/25/2025,21:14:26.74,-102.05,-320.80,-901.37,-2.01,-5.27,4.39,
05/25/2025,21:14:26.76,-141.60,-334.47,-945.31,-1.16,-12.71,-2.71,
05/25/2025,21:14:26.81,-138.67,-329.59,-979.00,9.45,-18.35,-0.79,
05/25/2025,21:14:26.83,-119.14,-318.85,-913.57,6.13,-16.40,4.54,
05/25/2025,21:14:26.85,-156.74,-324.22,-896.48,-5.03,-11.49,7.20,
05/25/2025,21:14:26.87,-166.02,-318.85,-986.82,-6.83,-13.02,7.99,
05/25/2025,21:14:26.89,-185.55,-322.27,-961.43,-2.56,-12.87,5.55,
05/25/2025,21:14:26.91,-158.20,-329.10,-931.15,-5.64,-17.38,5.15,
05/25/2025,21:14:26.93,-200.68,-328.12,-960.45,-13.14,-9.94,6.95,
05/25/2025,21:14:26.95,-188.48,-305.66,-1007.81,-7.84,-12.47,9.45,
05/25/2025,21:14:26.97,-244.14,-315.92,-1012.21,0.03,-17.74,8.69,
05/25/2025,21:14:26.99,-202.15,-319.34,-948.73,3.96,-19.45,6.49,
05/25/2025,21:14:27.01,-216.31,-328.12,-988.28,9.33,-29.60,12.44,
05/25/2025,21:14:27.03,-260.25,-335.45,-944.34,11.10,-35.70,17.84,
05/25/2025,21:14:27.05,-257.32,-335.94,-887.21,4.85,-13.60,8.75,
05/25/2025,21:14:27.07,-257.32,-335.94,-927.25,-3.75,-2.59,7.10,
05/25/2025,21:14:27.09,-267.58,-334.47,-953.12,-2.13,-9.36,2.16,
05/25/2025,21:14:27.11,-231.45,-318.36,-909.18,1.83,-16.65,4.36,
05/25/2025,21:14:27.13,-295.41,-319.34,-886.72,-3.87,-11.10,1.65,
05/25/2025,21:14:27.15,-309.08,-296.88,-931.64,-8.23,-4.18,-3.69,
05/25/2025,21:14:27.17,-313.96,-297.85,-972.66,-8.72,5.43,-1.43,
05/25/2025,21:14:27.19,-278.81,-312.01,-969.24,-1.52,0.09,-5.85,
05/25/2025,21:14:27.21,-242.19,-313.96,-946.29,6.31,-14.27,-3.20,
05/25/2025,21:14:27.23,-247.56,-296.39,-889.65,1.89,-14.18,-1.28,
05/25/2025,21:14:27.25,-263.67,-296.88,-920.90,-4.85,-1.68,-0.91,
05/25/2025,21:14:27.27,-314.45,-300.29,-961.91,-9.42,2.96,-2.59,
05/25/2025,21:14:27.32,-285.16,-286.62,-964.84,-0.85,-7.10,-3.57,
05/25/2025,21:14:27.34,-257.32,-263.67,-958.98,-3.05,-6.62,-0.27,
05/25/2025,21:14:27.36,-295.41,-292.48,-967.77,2.90,-3.87,-0.61,
05/25/2025,21:14:27.38,-271.48,-288.09,-969.73,6.43,-6.65,-2.47,
05/25/2025,21:14:27.40,-297.85,-303.71,-966.80,5.76,-0.91,6.31,
05/25/2025,21:14:27.42,-288.09,-303.71,-984.86,-1.01,5.95,1.43,
05/25/2025,21:14:27.44,-281.25,-309.57,-982.42,4.27,-1.77,-2.35,
05/25/2025,21:14:27.46,-297.85,-327.15,-971.19,7.29,-5.98,-4.21,
05/25/2025,21:14:27.48,-300.78,-319.82,-921.39,6.46,-5.09,0.70,
05/25/2025,21:14:27.50,-288.57,-311.52,-911.62,-6.52,6.25,-0.67,
05/25/2025,21:14:27.52,-309.57,-314.45,-928.22,-5.30,4.73,-3.69,
05/25/2025,21:14:27.54,-291.02,-297.85,-951.17,-6.31,5.64,-4.02,
05/25/2025,21:14:27.56,-292.97,-299.32,-924.80,-9.57,11.40,-6.28,
05/25/2025,21:14:27.58,-248.05,-286.62,-911.13,-7.20,7.47,-4.60,
05/25/2025,21:14:27.60,-283.20,-279.30,-926.27,-5.55,4.66,-6.55,
05/25/2025,21:14:27.62,-289.06,-291.02,-949.22,-3.93,4.05,-1.43,
05/25/2025,21:14:27.64,-256.84,-281.74,-949.71,-2.77,3.05,-7.29,
05/25/2025,21:14:27.66,-262.70,-290.04,-900.39,1.31,4.76,-3.41,
05/25/2025,21:14:27.68,-287.60,-296.39,-927.73,-4.15,5.21,-0.70,
05/25/2025,21:14:27.70,-284.67,-289.06,-917.48,-2.50,4.79,-4.21,
05/25/2025,21:14:27.72,-290.53,-274.41,-938.96,-0.73,1.37,-7.23,
05/25/2025,21:14:27.74,-296.88,-286.13,-948.73,-5.73,4.30,-7.16,
05/25/2025,21:14:27.76,-286.13,-263.18,-947.75,-1.59,1.25,-7.35,
05/25/2025,21:14:27.78,-293.46,-273.44,-948.73,-3.11,0.18,-2.93,
05/25/2025,21:14:27.83,-280.27,-260.25,-943.85,-3.20,0.79,-1.31,
05/25/2025,21:14:27.85,-262.21,-254.88,-955.57,1.86,-2.80,-2.87,
05/25/2025,21:14:27.87,-244.63,-245.61,-952.64,0.24,-0.52,-0.49,
05/25/2025,21:14:27.89,-274.41,-259.77,-967.29,-0.18,1.74,4.24,
05/25/2025,21:14:27.91,-309.08,-257.81,-982.42,2.01,-1.86,-2.68,
05/25/2025,21:14:27.93,-248.05,-227.54,-1005.86,3.72,7.41,1.52,
05/25/2025,21:14:27.95,-156.74,-206.54,-943.85,10.76,3.87,2.68,
05/25/2025,21:14:27.97,-222.17,-241.21,-925.29,10.61,1.13,9.36,
05/25/2025,21:14:27.99,-260.25,-256.84,-906.25,6.83,4.82,15.58,
05/25/2025,21:14:28.01,-336.43,-288.09,-963.38,7.84,6.07,8.78,
05/25/2025,21:14:28.03,-340.33,-297.36,-958.50,5.12,4.73,9.12,
05/25/2025,21:14:28.05,-331.05,-292.97,-957.52,5.37,2.87,5.03,
05/25/2025,21:14:28.07,-341.31,-315.92,-938.96,5.52,0.46,2.44,
05/25/2025,21:14:28.09,-271.48,-269.04,-912.60,4.24,1.37,4.85,
05/25/2025,21:14:28.11,-273.44,-284.18,-902.83,-0.40,-1.95,6.80,
05/25/2025,21:14:28.13,-237.30,-258.30,-922.36,-5.40,-2.56,6.07,
05/25/2025,21:14:28.15,-221.19,-208.01,-968.75,-5.64,-2.47,4.82,
05/25/2025,21:14:28.17,-234.38,-191.41,-1038.09,-1.49,0.61,12.01,
05/25/2025,21:14:28.19,-253.91,-175.29,-1030.27,4.09,-5.37,12.41,
05/25/2025,21:14:28.21,-256.84,-172.36,-1037.11,12.16,-5.58,13.23,
05/25/2025,21:14:28.23,-245.12,-199.22,-998.05,14.18,-4.63,18.99,
05/25/2025,21:14:28.25,-257.32,-234.38,-971.68,17.10,-6.62,18.63,
05/25/2025,21:14:28.27,-300.29,-267.09,-954.10,15.43,-2.80,25.27,
05/25/2025,21:14:28.29,-349.12,-291.50,-952.15,12.90,0.06,22.93,
05/25/2025,21:14:28.34,-389.65,-339.84,-919.43,16.83,-4.15,16.71,
05/25/2025,21:14:28.36,-370.12,-324.71,-944.82,15.37,-0.67,16.01,
05/25/2025,21:14:28.38,-397.95,-348.14,-909.67,25.09,-6.71,11.34,
05/25/2025,21:14:28.40,-371.09,-365.72,-879.88,20.79,-3.17,8.14,
05/25/2025,21:14:28.42,-355.47,-359.86,-883.30,20.88,-4.21,4.79,
05/25/2025,21:14:28.44,-371.58,-374.51,-833.50,20.58,-1.68,0.27,
05/25/2025,21:14:28.46,-339.36,-375.98,-817.38,8.05,2.04,-1.25,
05/25/2025,21:14:28.48,-335.94,-380.86,-871.58,5.76,0.95,0.73,
05/25/2025,21:14:28.50,-341.80,-373.54,-887.70,4.94,-3.26,-4.21,
05/25/2025,21:14:28.52,-348.14,-362.79,-871.58,6.62,-6.62,-2.44,
05/25/2025,21:14:28.54,-346.19,-362.30,-864.26,3.81,-7.23,-6.68,
05/25/2025,21:14:28.56,-328.12,-352.05,-871.09,-1.92,-6.71,-7.07,
05/25/2025,21:14:28.58,-338.87,-347.17,-877.44,-2.87,-5.70,-5.00,
05/25/2025,21:14:28.60,-357.42,-343.75,-914.55,-3.87,-6.74,-8.72,
05/25/2025,21:14:28.62,-354.98,-333.01,-917.48,-2.44,-10.12,-12.38,
05/25/2025,21:14:28.64,-345.70,-321.78,-935.06,-2.20,-4.54,-9.21,
05/25/2025,21:14:28.66,-335.94,-306.15,-915.04,-3.69,-3.87,-12.35,
05/25/2025,21:14:28.68,-312.50,-309.08,-926.27,-1.43,-7.04,-11.34,
05/25/2025,21:14:28.70,-300.29,-314.45,-877.44,-0.49,-10.55,-7.23,
05/25/2025,21:14:28.72,-281.25,-314.45,-869.63,-4.12,-13.63,-5.52,
05/25/2025,21:14:28.74,-297.36,-317.87,-863.77,-7.74,-8.93,-3.81,
05/25/2025,21:14:28.76,-342.77,-312.01,-902.83,-13.02,-6.25,-2.38,
05/25/2025,21:14:28.78,-381.35,-307.62,-912.60,-13.05,-7.65,-0.21,
05/25/2025,21:14:28.80,-419.43,-300.29,-949.22,-15.82,-9.73,0.30,
