rtcDate,rtcTime,aX,aY,aZ,gX,gY,gZ,
05/25/2025,21:15:11.19,995.61,-28.81,-10.25,1.80,1.68,1.04,
05/25/2025,21:15:11.25,1005.37,-30.27,-16.60,1.16,1.22,1.37,
05/25/2025,21:15:11.27,1014.16,-28.81,-7.32,1.04,2.38,-0.67,
05/25/2025,21:15:11.29,1002.93,-20.02,-6.84,0.64,2.32,-1.71,
05/25/2025,21:15:11.31,1009.77,-19.04,-12.21,-0.30,2.65,-0.67,
05/25/2025,21:15:11.33,997.56,-21.97,-20.02,2.20,0.82,1.43,
05/25/2025,21:15:11.35,995.12,-32.23,-14.16,0.37,0.00,0.95,
05/25/2025,21:15:11.37,1004.39,-31.74,-14.16,1.71,2.71,-1.43,
05/25/2025,21:15:11.39,991.21,-18.55,-9.28,1.98,2.74,-3.81,
05/25/2025,21:15:11.41,993.16,-37.60,-13.67,-0.21,0.24,-3.54,
05/25/2025,21:15:11.43,1003.91,-20.02,0.98,1.83,1.04,-3.99,
05/25/2025,21:15:11.45,1000.49,-21.00,-16.11,1.10,2.01,-2.84,
05/25/2025,21:15:11.47,997.07,-34.18,-11.23,0.76,1.19,-2.16,
05/25/2025,21:15:11.49,1003.91,-31.25,-20.02,3.29,3.11,-0.43,
05/25/2025,21:15:11.51,987.30,-23.44,-14.16,1.43,0.85,0.98,
05/25/2025,21:15:11.53,1007.81,-21.97,-12.21,1.98,-0.06,-2.50,
05/25/2025,21:15:11.55,993.16,-28.81,-14.16,1.89,-0.40,0.64,
05/25/2025,21:15:11.57,992.19,-34.67,-12.21,1.13,0.76,-3.23,
05/25/2025,21:15:11.59,1013.18,-26.86,-5.37,0.58,-0.85,-1.22,
05/25/2025,21:15:11.61,997.56,-26.37,-12.70,1.89,2.26,-0.64,
05/25/2025,21:15:11.63,992.19,-17.58,-12.21,0.85,2.59,0.98,
05/25/2025,21:15:11.66,987.79,-29.30,-8.30,2.13,3.20,1.28,
05/25/2025,21:15:11.68,1011.23,-21.97,-9.28,0.43,4.60,-1.89,
05/25/2025,21:15:11.70,1006.84,-24.41,-14.65,-0.06,0.34,0.73,
05/25/2025,21:15:11.74,999.02,-21.48,-5.86,1.52,0.24,-0.30,
05/25/2025,21:15:11.77,999.51,-31.74,-2.44,0.34,1.62,0.64,
05/25/2025,21:15:11.79,982.42,-19.04,-16.11,0.88,1.40,-2.47,
05/25/2025,21:15:11.81,1007.32,-31.25,-22.95,1.07,1.49,-2.16,
05/25/2025,21:15:11.83,1000.98,-23.44,-14.65,0.64,2.53,-0.09,
05/25/2025,21:15:11.85,1001.46,-43.95,-11.23,1.40,2.16,3.48,
05/25/2025,21:15:11.87,995.12,-35.16,-12.21,1.16,1.01,1.65,
05/25/2025,21:15:11.89,997.07,-27.83,-13.67,0.82,2.77,1.34,
05/25/2025,21:15:11.91,998.54,-22.95,-16.60,0.46,3.69,-1.77,
05/25/2025,21:15:11.93,1001.95,-31.74,-13.67,1.52,0.43,0.03,
05/25/2025,21:15:11.95,1000.49,-20.51,-6.35,0.24,2.56,-1.40,
05/25/2025,21:15:11.97,1004.39,-26.86,-0.98,2.80,2.59,-0.76,
05/25/2025,21:15:11.99,999.02,-33.69,-14.65,1.25,3.02,1.77,
05/25/2025,21:15:12.01,992.19,-21.97,-15.14,0.21,-0.40,0.18,
05/25/2025,21:15:12.03,1001.46,-20.51,-12.70,1.19,0.70,-2.26,
05/25/2025,21:15:12.05,991.70,-27.34,-0.49,2.50,-0.52,-0.21,
05/25/2025,21:15:12.07,989.75,-27.83,-11.72,2.50,1.74,2.32,
05/25/2025,21:15:12.09,1009.77,-27.83,-17.58,5.40,0.61,-0.58,
05/25/2025,21:15:12.11,1010.74,-31.25,2.44,1.28,1.74,-3.23,
05/25/2025,21:15:12.13,1005.86,-26.86,-22.46,-0.18,4.18,-5.37,
05/25/2025,21:15:12.15,998.54,-22.95,-0.98,0.49,1.71,1.86,
05/25/2025,21:15:12.17,1005.86,-24.90,-5.86,-0.34,-0.21,0.67,
05/25/2025,21:15:12.19,1006.35,-19.04,-15.14,1.34,1.37,-1.49,
05/25/2025,21:15:12.21,1001.95,-29.30,-14.65,-0.03,3.05,-0.64,
05/25/2025,21:15:12.26,990.72,-29.79,-10.74,3.35,1.49,-0.79,
05/25/2025,21:15:12.28,1000.00,-39.55,-4.39,2.04,2.71,1.07,
05/25/2025,21:15:12.30,998.54,-31.25,-6.35,3.54,1.01,1.59,
05/25/2025,21:15:12.32,1000.49,-23.44,-10.74,0.73,-0.24,-0.12,
05/25/2025,21:15:12.34,1003.42,-26.37,-3.91,2.59,2.26,-0.61,
05/25/2025,21:15:12.36,997.56,-28.81,-8.79,0.58,1.74,0.73,
05/25/2025,21:15:12.38,999.02,-39.06,-11.72,1.80,-0.67,-0.55,
05/25/2025,21:15:12.40,1012.21,-29.79,-7.32,1.34,1.22,0.40,
05/25/2025,21:15:12.42,989.75,-22.95,-9.77,0.00,4.79,0.76,
05/25/2025,21:15:12.44,1005.37,-34.18,-17.09,0.24,0.37,-3.20,
05/25/2025,21:15:12.46,990.72,-24.90,-10.74,2.16,2.38,5.00,
05/25/2025,21:15:12.48,1012.21,-31.74,-1.95,1.52,1.52,0.09,
05/25/2025,21:15:12.50,998.54,-25.88,-13.18,2.50,2.23,1.07,
05/25/2025,21:15:12.52,991.70,-31.25,-7.81,1.07,2.59,-0.06,
05/25/2025,21:15:12.54,1000.98,-39.06,-5.86,3.87,4.30,-1.10,
05/25/2025,21:15:12.56,993.16,-31.74,-6.35,0.64,1.25,-1.37,
05/25/2025,21:15:12.58,1004.39,-17.58,-15.62,1.65,3.57,1.68,
05/25/2025,21:15:12.60,1006.84,-28.32,-11.72,2.35,1.86,2.65,
05/25/2025,21:15:12.62,1002.93,-20.02,-6.84,2.87,0.70,-2.68,
05/25/2025,21:15:12.64,997.56,-24.90,-17.09,3.05,3.35,-1.55,
05/25/2025,21:15:12.66,1005.86,-20.51,-4.88,1.77,1.98,2.84,
05/25/2025,21:15:12.68,999.02,-30.27,-21.97,0.61,2.99,1.86,
05/25/2025,21:15:12.70,1005.86,-30.27,-19.53,0.27,2.80,-2.65,
05/25/2025,21:15:12.72,992.19,-26.37,-24.41,0.67,1.98,0.24,
05/25/2025,21:15:12.77,1000.49,-20.51,-1.95,1.80,1.83,-1.34,
05/25/2025,21:15:12.79,989.26,-20.02,-6.84,1.98,3.26,-0.91,
05/25/2025,21:15:12.81,1018.07,-26.86,-6.35,3.48,1.04,-0.09,
05/25/2025,21:15:12.83,999.51,-24.90,-9.28,0.43,1.19,2.84,
05/25/2025,21:15:12.85,1011.23,-14.65,-21.00,2.32,2.13,2.35,
05/25/2025,21:15:12.87,999.02,-23.93,-18.55,0.85,2.93,0.40,
05/25/2025,21:15:12.89,1005.37,-22.95,-23.93,1.68,1.37,-3.72,
05/25/2025,21:15:12.91,992.68,-40.53,-10.25,2.35,0.61,-1.74,
05/25/2025,21:15:12.93,1009.28,-35.64,-16.60,1.40,1.01,-3.45,
05/25/2025,21:15:12.95,1021.48,-20.02,-0.98,3.48,3.29,-3.23,
05/25/2025,21:15:12.97,997.56,-29.30,-4.39,3.29,2.71,-2.62,
05/25/2025,21:15:12.99,1002.93,-26.37,-6.84,1.80,1.65,-0.46,
05/25/2025,21:15:13.01,999.02,-30.76,-8.79,2.01,1.68,0.79,
05/25/2025,21:15:13.03,989.26,-31.74,-3.91,2.71,3.11,0.21,
05/25/2025,21:15:13.05,983.40,-32.71,-12.70,2.47,1.40,-3.35,
05/25/2025,21:15:13.07,1006.35,-24.41,-11.72,-0.55,0.88,-2.68,
05/25/2025,21:15:13.09,1011.23,-24.90,-7.32,2.07,1.77,-1.98,
05/25/2025,21:15:13.11,1013.67,-16.11,-18.07,2.53,3.29,-1.43,
05/25/2025,21:15:13.13,996.09,-19.04,-15.62,2.20,1.01,-3.05,
05/25/2025,21:15:13.15,1008.30,-29.30,-6.84,0.12,2.23,2.53,
05/25/2025,21:15:13.17,991.70,-24.90,-14.65,1.86,3.11,-0.76,
05/25/2025,21:15:13.19,1009.28,-24.41,-11.23,0.61,1.68,0.24,
05/25/2025,21:15:13.21,1000.98,-31.25,-11.23,3.23,1.22,-2.13,
05/25/2025,21:15:13.23,1006.84,-26.86,1.95,2.68,0.76,-0.21,
05/25/2025,21:15:13.28,1002.93,-20.51,-3.42,1.28,1.59,-1.16,
05/25/2025,21:15:13.30,1000.49,-16.60,-10.74,0.79,0.46,-0.55,
05/25/2025,21:15:13.32,1001.95,-35.64,-13.18,2.93,2.77,2.77,
05/25/2025,21:15:13.34,1001.46,-27.34,-12.21,0.61,2.65,-2.50,
05/25/2025,21:15:13.36,1001.95,-30.27,-18.55,1.46,1.40,0.55,
05/25/2025,21:15:13.38,998.05,-24.90,-22.46,2.04,2.53,1.77,
05/25/2025,21:15:13.40,1004.39,-20.51,-15.14,1.28,1.37,-1.25,
05/25/2025,21:15:13.42,994.63,-30.76,-13.18,1.31,1.74,-0.43,
05/25/2025,21:15:13.44,997.07,-31.25,-14.16,2.44,2.62,1.89,
05/25/2025,21:15:13.46,1003.42,-29.30,-13.67,2.71,-0.82,-1.62,
05/25/2025,21:15:13.48,997.56,-30.27,-12.21,2.50,2.71,-0.37,
05/25/2025,21:15:13.50,994.63,-36.62,-8.79,3.26,0.98,-1.52,
05/25/2025,21:15:13.52,990.72,-30.27,-0.49,-0.03,2.23,-2.87,
05/25/2025,21:15:13.54,1000.98,-33.69,-9.28,3.81,3.29,-2.74,
05/25/2025,21:15:13.56,1009.28,-24.41,-6.84,1.16,2.77,-2.53,
05/25/2025,21:15:13.58,1000.49,-31.74,-8.30,1.86,0.91,0.95,
05/25/2025,21:15:13.60,1007.32,-28.32,-9.77,1.07,3.38,-0.64,
05/25/2025,21:15:13.62,1007.32,-27.83,-14.16,-0.49,3.75,0.58,
05/25/2025,21:15:13.64,999.51,-35.16,-11.23,1.71,2.96,-2.41,
05/25/2025,21:15:13.66,1013.67,-37.60,-12.21,1.31,2.62,-1.22,
05/25/2025,21:15:13.68,994.63,-25.88,-9.77,-0.46,1.25,-1.10,
05/25/2025,21:15:13.70,1008.79,-56.64,122.56,1.16,0.46,-4.27,
05/25/2025,21:15:13.72,1001.46,-22.95,-32.71,2.41,2.20,-3.38,
05/25/2025,21:15:13.74,1005.86,-23.44,-41.99,1.89,2.77,-0.58,
05/25/2025,21:15:13.79,999.02,-32.71,-12.21,0.24,2.10,-2.87,
05/25/2025,21:15:13.81,998.54,-22.95,-19.04,0.91,1.80,1.80,
05/25/2025,21:15:13.83,990.72,-38.57,-3.91,0.91,1.28,0.95,
05/25/2025,21:15:13.85,1008.30,-19.53,-13.18,2.77,0.55,-0.40,
05/25/2025,21:15:13.87,1011.23,-36.13,-12.70,3.26,1.37,0.00,
05/25/2025,21:15:13.89,1002.44,-23.93,-3.91,3.78,-0.76,2.16,
05/25/2025,21:15:13.91,995.61,-33.69,-16.11,0.24,1.65,-3.72,
05/25/2025,21:15:13.93,997.56,-21.97,-9.28,2.44,2.47,-0.61,
05/25/2025,21:15:13.95,992.19,-33.20,-20.51,2.20,2.26,-1.80,
05/25/2025,21:15:13.97,997.56,-18.07,-6.84,1.71,0.12,0.52,
05/25/2025,21:15:13.99,1009.28,-23.93,-14.65,-0.79,1.43,-1.10,
05/25/2025,21:15:14.01,996.09,-34.67,-6.35,0.58,1.07,-0.37,
05/25/2025,21:15:14.03,1011.72,-41.99,-7.32,1.07,1.83,1.04,
05/25/2025,21:15:14.05,1007.81,-18.55,-9.28,2.53,2.68,-0.34,
05/25/2025,21:15:14.07,1014.16,-31.74,-9.77,3.29,2.65,0.03,
05/25/2025,21:15:14.09,1005.86,-32.23,-17.09,3.57,1.80,-0.12,
05/25/2025,21:15:14.11,1004.88,-28.32,-15.62,2.80,2.38,2.90,
05/25/2025,21:15:14.13,1006.84,-23.44,-5.37,0.18,1.10,-0.91,
05/25/2025,21:15:14.15,995.61,-31.25,-16.60,3.14,2.77,-3.51,
05/25/2025,21:15:14.17,1002.93,-19.53,-12.70,2.44,1.46,-1.74,
05/25/2025,21:15:14.19,1000.00,-28.32,-4.88,2.90,3.32,1.31,
05/25/2025,21:15:14.21,998.05,-28.81,-13.18,3.66,2.99,-1.80,
05/25/2025,21:15:14.23,1009.28,-33.20,-12.21,0.91,1.16,-1.74,
05/25/2025,21:15:14.25,1009.77,-25.39,-10.74,-0.67,2.56,0.34,
05/25/2025,21:15:14.30,1005.86,-20.51,-7.81,-0.24,2.44,-1.28,
05/25/2025,21:15:14.32,999.02,-21.97,-7.32,1.89,1.22,-0.03,
05/25/2025,21:15:14.34,1001.95,-15.62,-14.65,2.01,0.95,0.91,
05/25/2025,21:15:14.36,994.63,-26.37,-8.30,0.76,3.32,2.01,
05/25/2025,21:15:14.38,1015.62,-28.32,-17.58,1.46,1.07,0.46,
05/25/2025,21:15:14.40,993.65,-29.79,-24.41,0.12,1.43,1.89,
05/25/2025,21:15:14.42,998.54,-28.32,-3.91,1.40,1.74,1.49,
05/25/2025,21:15:14.44,1007.81,-23.93,-6.35,2.71,2.84,0.27,
05/25/2025,21:15:14.46,1002.44,-22.95,-10.25,-0.79,0.85,-0.34,
05/25/2025,21:15:14.48,1001.95,-31.25,-14.16,0.37,-0.06,2.23,
05/25/2025,21:15:14.50,995.12,-27.34,-16.11,1.83,1.37,2.20,
05/25/2025,21:15:14.52,1016.60,-29.30,-8.30,3.99,3.48,-1.52,
05/25/2025,21:15:14.54,992.68,-35.64,-21.00,3.69,1.22,-0.49,
05/25/2025,21:15:14.56,998.54,-25.88,-9.77,1.98,1.71,-0.85,
05/25/2025,21:15:14.58,1001.46,-23.93,-6.84,-0.06,3.26,-2.13,
05/25/2025,21:15:14.60,998.05,-13.18,0.00,-0.06,4.24,0.34,
05/25/2025,21:15:14.62,1002.44,-30.76,-14.16,1.34,1.52,1.86,
05/25/2025,21:15:14.64,996.09,-26.37,-5.37,1.10,1.01,-2.84,
05/25/2025,21:15:14.66,995.12,-27.83,-0.49,0.24,1.59,-3.51,
05/25/2025,21:15:14.68,1004.39,-33.20,-10.25,2.04,0.82,-0.98,
05/25/2025,21:15:14.70,993.65,-20.02,-21.97,2.62,-0.12,-0.55,
05/25/2025,21:15:14.72,994.14,-35.64,-19.04,-0.09,2.59,-1.74,
05/25/2025,21:15:14.74,1000.98,-30.76,-16.11,3.38,1.92,-0.82,
05/25/2025,21:15:14.76,999.51,-26.37,-12.70,1.83,0.49,-0.40,
05/25/2025,21:15:14.81,999.51,-32.71,-5.37,2.38,1.52,-1.04,
05/25/2025,21:15:14.83,994.14,-52.73,-16.60,1.07,1.28,-2.16,
05/25/2025,21:15:14.85,1011.72,-35.16,-11.72,3.05,0.76,3.17,
05/25/2025,21:15:14.87,997.07,-20.51,1.46,2.50,1.25,1.86,
05/25/2025,21:15:14.89,1008.79,-18.07,-9.28,3.11,2.38,-1.22,
05/25/2025,21:15:14.91,997.07,-15.62,-16.11,2.47,0.91,-2.13,
05/25/2025,21:15:14.93,997.56,-19.04,-20.51,1.04,3.11,-1.43,
05/25/2025,21:15:14.95,1008.79,-12.70,-7.32,1.13,4.15,-0.37,
05/25/2025,21:15:14.97,1000.00,-27.83,-11.72,0.64,4.70,-1.43,
05/25/2025,21:15:15.00,999.02,-26.37,-13.18,-0.06,-0.09,-0.37,
05/25/2025,21:15:15.02,997.56,-30.27,3.42,1.28,1.19,0.15,
05/25/2025,21:15:15.04,1001.95,-32.23,-13.18,0.43,0.09,-0.40,
05/25/2025,21:15:15.06,997.56,-26.37,-15.62,2.32,3.60,-1.34,
05/25/2025,21:15:15.08,1000.49,-19.04,-9.77,-0.03,0.27,2.32,
05/25/2025,21:15:15.10,999.51,-22.95,-14.65,1.92,2.93,-3.17,
05/25/2025,21:15:15.12,1008.30,-21.97,-7.32,0.49,0.34,-1.62,
05/25/2025,21:15:15.14,1001.46,-22.95,-1.95,2.62,1.77,-3.48,
05/25/2025,21:15:15.16,1009.28,-21.00,-9.28,1.19,2.62,0.34,
05/25/2025,21:15:15.18,1003.91,-33.20,-3.91,0.70,3.11,-1.98,
05/25/2025,21:15:15.20,992.19,-44.92,-3.42,0.49,-1.49,-0.79,
05/25/2025,21:15:15.22,997.56,-26.37,-23.44,1.89,1.55,-1.07,
05/25/2025,21:15:15.24,1006.84,-30.27,-4.88,1.19,0.21,-0.43,
05/25/2025,21:15:15.26,994.63,-19.53,-1.95,1.28,2.10,-3.23,
05/25/2025,21:15:15.28,1000.98,-20.02,-9.77,2.50,1.43,-1.52,
05/25/2025,21:15:15.33,994.14,-37.60,-7.32,-0.03,3.78,0.03,
05/25/2025,21:15:15.35,1002.93,-27.34,-13.18,1.59,1.77,-0.18,
05/25/2025,21:15:15.37,1003.91,-33.69,-15.14,1.34,0.91,-0.24,
05/25/2025,21:15:15.39,1000.00,-40.53,-12.70,0.30,2.29,-0.37,
05/25/2025,21:15:15.41,1001.46,-33.69,0.00,3.26,0.34,1.10,
05/25/2025,21:15:15.43,1001.95,-21.00,-8.79,0.55,1.40,-2.26,
05/25/2025,21:15:15.45,996.58,-15.62,-13.18,2.80,2.93,0.67,
05/25/2025,21:15:15.47,1002.44,-35.16,-6.84,-0.21,2.80,0.49,
05/25/2025,21:15:15.49,1003.42,-23.44,-15.14,-0.85,2.62,-1.10,
05/25/2025,21:15:15.51,994.63,-36.62,-5.86,-0.85,1.86,-3.66,
05/25/2025,21:15:15.53,997.56,-22.95,-8.30,2.07,4.02,-2.90,
05/25/2025,21:15:15.55,993.16,-23.44,-14.16,1.19,1.80,-1.77,
05/25/2025,21:15:15.57,995.61,-19.04,-2.93,0.64,0.00,1.49,
05/25/2025,21:15:15.59,1003.91,-13.18,-16.11,4.51,0.43,0.49,
05/25/2025,21:15:15.61,997.56,-18.55,-17.58,-0.79,1.37,-1.19,
05/25/2025,21:15:15.63,1001.46,-33.20,-8.30,0.64,0.98,-2.84,
05/25/2025,21:15:15.65,1001.95,-28.32,-17.09,0.06,1.22,3.35,
05/25/2025,21:15:15.67,1000.98,-28.32,-12.70,1.31,0.98,2.10,
05/25/2025,21:15:15.69,992.19,-29.30,-16.11,1.07,1.68,-0.18,
05/25/2025,21:15:15.71,1000.98,-29.30,-10.74,-1.80,0.49,1.83,
05/25/2025,21:15:15.73,999.02,-44.92,-20.02,0.21,1.86,-1.25,
05/25/2025,21:15:15.75,1001.95,-12.70,-9.28,1.77,1.89,-0.98,
05/25/2025,21:15:15.77,1000.00,-20.02,-13.18,1.86,1.46,-2.47,
05/25/2025,21:15:15.79,1001.46,-24.90,-7.32,3.57,2.77,0.43,
05/25/2025,21:15:15.84,1000.98,-36.13,-20.02,2.99,2.44,0.18,
05/25/2025,21:15:15.86,992.68,-32.71,0.98,1.37,2.32,-3.72,
05/25/2025,21:15:15.88,991.70,-14.65,-3.42,1.89,1.98,-0.49,
05/25/2025,21:15:15.90,1006.84,-28.81,-10.74,4.33,0.03,0.43,
05/25/2025,21:15:15.92,1006.35,-33.69,-0.49,1.16,2.07,-1.04,
05/25/2025,21:15:15.94,1003.42,-32.71,-12.21,-0.52,1.28,-1.59,
05/25/2025,21:15:15.96,1001.95,-20.51,-14.16,1.62,1.68,-1.13,
05/25/2025,21:15:15.98,1011.72,-38.57,-13.67,-0.27,1.07,-0.49,
05/25/2025,21:15:16.00,996.58,-35.64,-12.70,1.04,3.54,0.21,
05/25/2025,21:15:16.02,1001.95,-36.13,-9.77,0.52,0.82,-2.41,
05/25/2025,21:15:16.04,1000.49,-21.48,-14.16,1.68,-0.76,-1.65,
05/25/2025,21:15:16.06,998.54,-25.88,-7.32,1.80,1.89,-1.98,
05/25/2025,21:15:16.08,996.58,-27.34,-5.37,0.82,-1.46,1.10,
05/25/2025,21:15:16.10,1000.98,-21.48,-12.21,1.28,0.82,-0.09,
05/25/2025,21:15:16.12,1005.86,-32.23,-7.81,-0.27,1.98,-2.47,
05/25/2025,21:15:16.14,996.58,-32.71,-11.72,0.24,2.77,-0.40,
05/25/2025,21:15:16.16,988.28,-25.88,-9.77,0.64,2.23,1.65,
05/25/2025,21:15:16.18,998.05,-22.46,-15.62,3.69,1.95,-1.40,
05/25/2025,21:15:16.20,991.21,-35.16,-2.93,0.67,3.93,-0.73,
05/25/2025,21:15:16.22,994.14,-17.58,-15.14,0.43,2.16,-3.17,
05/25/2025,21:15:16.24,994.63,-14.65,-7.32,1.01,2.77,0.73,
05/25/2025,21:15:16.26,987.79,-28.81,-17.58,-0.06,1.46,-0.40,
05/25/2025,21:15:16.28,998.54,-27.83,-1.46,1.16,2.74,0.30,
05/25/2025,21:15:16.30,1006.35,-23.44,-9.28,1.49,2.13,0.37,
05/25/2025,21:15:16.36,1001.46,-29.30,-8.79,2.90,0.52,-0.70,
05/25/2025,21:15:16.38,991.70,-37.60,-16.60,0.18,3.14,4.57,
05/25/2025,21:15:16.40,1002.44,-20.51,-3.42,1.10,2.77,0.70,
05/25/2025,21:15:16.42,993.65,-21.00,-7.32,2.90,1.13,0.46,
05/25/2025,21:15:16.44,986.33,-18.07,-2.44,1.34,2.23,-1.86,
05/25/2025,21:15:16.46,1010.25,-28.81,-8.79,1.40,1.52,0.49,
05/25/2025,21:15:16.48,996.58,-22.95,-6.84,1.71,0.52,-3.17,
05/25/2025,21:15:16.50,1003.42,-30.27,-9.28,2.96,1.65,0.49,
05/25/2025,21:15:16.52,1002.44,-37.11,-18.55,2.04,0.40,0.55,
05/25/2025,21:15:16.54,988.77,-36.13,-15.62,2.99,2.41,0.03,
05/25/2025,21:15:16.56,997.07,-21.48,-10.25,1.92,0.15,1.89,
05/25/2025,21:15:16.58,1001.46,-21.97,-6.84,1.04,2.16,0.18,
05/25/2025,21:15:16.60,1008.30,-20.51,-0.49,1.92,2.04,-0.09,
05/25/2025,21:15:16.62,1010.25,-33.20,-14.16,1.55,3.93,2.07,
05/25/2025,21:15:16.64,986.82,-26.37,-8.79,0.21,2.65,1.10,
05/25/2025,21:15:16.66,1006.35,-35.64,-12.70,3.29,3.66,-1.43,
05/25/2025,21:15:16.68,1000.49,-26.37,-10.25,-0.15,0.49,-0.18,
05/25/2025,21:15:16.70,1006.84,-26.37,-8.30,-0.52,2.29,-2.62,
05/25/2025,21:15:16.72,1000.49,-28.32,-17.09,1.04,3.60,-2.01,
05/25/2025,21:15:16.74,993.65,-32.71,-13.67,3.60,2.74,-2.59,
05/25/2025,21:15:16.76,997.07,-21.48,-5.86,0.82,1.83,-2.62,
05/25/2025,21:15:16.78,989.75,-32.71,-8.79,2.01,3.05,-0.85,
05/25/2025,21:15:16.80,1014.65,-19.04,-17.09,1.13,2.29,-0.30,
05/25/2025,21:15:16.82,997.07,-22.95,-2.93,-0.46,2.26,-2.56,
05/25/2025,21:15:16.87,998.54,-31.74,-16.11,2.80,1.77,-2.62,
05/25/2025,21:15:16.89,996.58,-18.07,-11.72,0.88,-0.09,3.17,
05/25/2025,21:15:16.91,1003.42,-12.21,-10.74,1.74,3.02,-0.61,
05/25/2025,21:15:16.93,1009.77,-22.95,-14.65,2.87,1.31,-0.79,
05/25/2025,21:15:16.95,996.09,-25.39,-15.14,2.56,0.61,-0.09,
05/25/2025,21:15:16.97,1005.37,-23.44,-7.32,1.49,2.38,-2.32,
05/25/2025,21:15:16.99,1009.28,-24.90,-8.79,1.19,1.10,-0.98,
05/25/2025,21:15:17.01,996.09,-15.62,-12.21,2.32,3.23,2.80,
05/25/2025,21:15:17.03,1007.81,-20.51,-4.88,0.46,0.40,0.67,
05/25/2025,21:15:17.05,993.65,-30.27,-21.00,2.41,1.04,1.16,
05/25/2025,21:15:17.07,1005.86,-21.48,-6.35,0.76,0.37,-4.63,
05/25/2025,21:15:17.09,1004.39,-21.48,-11.23,1.28,0.06,-1.95,
05/25/2025,21:15:17.11,1008.30,-31.74,-23.93,1.59,3.11,2.07,
05/25/2025,21:15:17.13,1001.46,-22.46,-9.77,1.43,2.74,1.59,
05/25/2025,21:15:17.15,1004.39,-28.81,-14.65,1.37,3.38,-0.73,
05/25/2025,21:15:17.17,1006.35,-38.57,-19.53,0.98,1.25,-1.19,
05/25/2025,21:15:17.19,1005.37,-23.93,-13.67,1.04,0.61,-1.92,
05/25/2025,21:15:17.21,998.54,-19.04,-11.23,2.16,0.91,-0.52,
05/25/2025,21:15:17.23,994.63,-39.55,-19.04,1.19,1.49,-2.65,
05/25/2025,21:15:17.25,1006.84,-31.25,-17.58,1.25,1.65,-1.19,
05/25/2025,21:15:17.27,1007.32,-21.48,-13.67,1.59,2.56,-0.49,
05/25/2025,21:15:17.29,1005.37,-17.09,-12.70,1.46,0.95,-1.43,
05/25/2025,21:15:17.31,1004.39,-29.30,-1.95,1.71,1.80,0.95,
05/25/2025,21:15:17.33,995.12,-28.32,-10.74,3.14,1.98,-2.23,
05/25/2025,21:15:17.38,1008.30,-15.14,-15.62,-0.27,1.49,1.80,
05/25/2025,21:15:17.40,1000.98,-22.95,0.49,0.49,0.67,0.49,
05/25/2025,21:15:17.42,1004.88,-28.81,-0.98,1.59,3.14,-2.23,
05/25/2025,21:15:17.44,1001.95,-25.88,-15.14,-0.03,1.34,-2.47,
05/25/2025,21:15:17.46,1002.44,-21.00,-13.67,1.31,1.04,0.49,
05/25/2025,21:15:17.48,1004.39,-24.41,-14.16,0.98,2.26,1.52,
05/25/2025,21:15:17.50,1008.79,-41.02,-21.97,1.92,3.05,-2.96,
05/25/2025,21:15:17.52,1004.39,-43.46,-16.60,-0.88,1.68,-1.62,
05/25/2025,21:15:17.54,994.63,-19.04,-18.55,2.16,1.68,3.87,
05/25/2025,21:15:17.56,985.84,-32.23,-3.42,0.34,2.44,-0.03,
05/25/2025,21:15:17.58,997.56,-33.69,-17.09,1.92,1.28,1.65,
05/25/2025,21:15:17.60,1000.00,-19.04,-10.25,1.52,1.25,-0.95,
05/25/2025,21:15:17.62,1009.28,-30.27,-6.84,1.74,2.23,-0.61,
05/25/2025,21:15:17.64,996.09,-30.27,-11.72,0.40,1.52,-1.62,
05/25/2025,21:15:17.66,1005.37,-33.69,-22.46,1.10,1.86,-0.85,
05/25/2025,21:15:17.68,999.51,-29.30,-19.53,0.06,2.87,-0.06,
05/25/2025,21:15:17.70,1010.74,-28.32,-13.18,1.13,1.68,0.37,
05/25/2025,21:15:17.72,998.54,-27.34,-3.91,0.30,1.83,-1.62,
05/25/2025,21:15:17.74,1005.37,-21.48,-4.88,1.62,0.49,2.71,
05/25/2025,21:15:17.76,1013.18,-25.88,-5.86,0.88,1.10,-1.83,
05/25/2025,21:15:17.78,1003.42,-39.06,-9.28,0.67,-0.40,2.16,
05/25/2025,21:15:17.80,994.14,-20.51,-18.07,2.32,2.07,-0.40,
05/25/2025,21:15:17.82,1004.88,-26.37,-6.84,1.37,0.27,-1.52,
05/25/2025,21:15:17.84,997.56,-21.48,-2.44,-0.58,3.69,-1.55,
05/25/2025,21:15:17.89,1002.44,-22.95,-11.23,1.22,1.55,-0.85,
05/25/2025,21:15:17.91,1000.49,-23.93,-2.93,1.22,0.95,0.27,
05/25/2025,21:15:17.93,997.07,-16.11,2.93,0.52,1.10,-0.30,
05/25/2025,21:15:17.95,1000.00,-28.32,-18.07,1.34,1.22,0.91,
05/25/2025,21:15:17.97,991.21,-30.76,-14.16,-0.12,3.38,-2.56,
05/25/2025,21:15:17.99,1000.00,-21.48,-12.21,0.76,1.43,2.68,
05/25/2025,21:15:18.01,1005.86,-36.62,-10.25,0.91,2.23,-0.61,
05/25/2025,21:15:18.03,1000.00,-17.09,-1.46,1.49,1.22,1.25,
05/25/2025,21:15:18.05,999.51,-27.83,-11.23,0.67,-0.58,-2.01,
05/25/2025,21:15:18.07,998.54,-33.20,-14.65,3.11,3.26,-0.37,
05/25/2025,21:15:18.09,1007.32,-32.23,-7.81,0.06,-1.31,-1.77,
05/25/2025,21:15:18.11,993.16,-21.97,-13.67,1.01,1.37,1.65,
05/25/2025,21:15:18.13,997.56,-24.41,-13.67,2.07,1.46,-0.55,
05/25/2025,21:15:18.15,997.56,-22.95,-5.86,4.27,-0.88,1.86,
05/25/2025,21:15:18.17,1002.44,-14.65,-10.74,0.00,1.55,-2.04,
05/25/2025,21:15:18.19,987.30,-20.51,-7.81,2.90,3.14,-2.13,
05/25/2025,21:15:18.21,1003.91,-18.07,-13.67,0.95,1.55,-0.52,
05/25/2025,21:15:18.23,1004.88,-39.55,-15.62,1.10,0.91,1.62,
05/25/2025,21:15:18.25,991.70,-26.37,-7.81,0.88,2.77,0.09,
05/25/2025,21:15:18.27,1002.44,-29.30,-14.16,2.04,0.88,-0.76,
05/25/2025,21:15:18.29,985.35,-31.74,-15.62,1.31,3.11,0.37,
05/25/2025,21:15:18.31,1004.88,-17.09,-6.35,2.41,-0.03,1.10,
05/25/2025,21:15:18.34,1006.84,-21.97,-2.93,1.80,1.77,-1.13,
05/25/2025,21:15:18.36,1000.49,-20.51,-5.86,1.07,1.16,-0.34,
05/25/2025,21:15:18.40,986.82,-47.36,-12.70,2.47,1.46,0.88,
05/25/2025,21:15:18.42,1004.39,-24.90,-12.70,2.87,3.35,1.40,
05/25/2025,21:15:18.44,1011.23,-31.74,-7.32,1.07,2.16,0.85,
05/25/2025,21:15:18.46,996.58,-19.53,-11.23,2.56,1.55,-0.64,
05/25/2025,21:15:18.48,1001.95,-22.95,-2.44,1.71,2.71,-0.61,
05/25/2025,21:15:18.50,1000.98,-34.18,-15.14,0.76,2.50,-1.04,
05/25/2025,21:15:18.53,1000.98,-25.39,-12.70,0.91,2.32,-0.67,
05/25/2025,21:15:18.55,1003.91,-21.97,-12.70,0.43,2.93,0.40,
05/25/2025,21:15:18.57,1003.42,-26.37,-14.65,0.58,2.56,-1.65,
05/25/2025,21:15:18.59,1001.46,-27.83,-7.32,1.01,0.82,2.29,
05/25/2025,21:15:18.61,1001.46,-18.55,-13.18,0.06,2.04,0.91,
05/25/2025,21:15:18.63,1005.86,-34.18,-12.70,1.34,0.67,-0.46,
05/25/2025,21:15:18.65,1002.44,-32.71,1.95,1.74,3.54,-0.27,
05/25/2025,21:15:18.67,991.70,-34.67,-8.30,-0.34,0.85,-1.59,
05/25/2025,21:15:18.69,1004.88,-25.88,-9.28,1.92,2.68,-2.10,
05/25/2025,21:15:18.71,999.02,-29.79,-7.32,1.31,-0.21,1.77,
05/25/2025,21:15:18.73,990.72,-24.41,-0.98,1.86,2.41,-1.37,
05/25/2025,21:15:18.75,1003.42,-20.51,-10.25,2.59,1.95,0.09,
05/25/2025,21:15:18.77,996.58,-19.04,-4.88,-0.27,3.72,-0.70,
05/25/2025,21:15:18.79,1010.74,-29.79,-14.16,1.10,1.52,0.43,
05/25/2025,21:15:18.81,991.21,-34.67,-14.16,0.00,1.46,-0.91,
05/25/2025,21:15:18.83,987.79,-26.86,-15.14,2.07,1.89,0.52,
05/25/2025,21:15:18.85,1011.23,-39.55,-12.21,0.24,4.51,-3.54,
05/25/2025,21:15:18.87,1015.14,-30.76,-9.77,3.02,1.10,1.01,
05/25/2025,21:15:18.92,987.30,-17.09,-7.81,1.25,-0.88,-0.91,
05/25/2025,21:15:18.94,995.61,-25.39,-4.88,3.02,1.71,-1.04,
05/25/2025,21:15:18.96,991.21,-19.04,-7.81,0.70,2.44,-4.02,
05/25/2025,21:15:18.98,1003.91,-21.97,-0.49,1.43,2.13,0.24,
05/25/2025,21:15:19.00,1000.49,-32.71,-11.23,1.77,-0.34,0.91,
05/25/2025,21:15:19.02,1005.37,-20.02,-2.44,2.53,3.20,-1.19,
05/25/2025,21:15:19.04,1002.44,-35.64,-23.93,0.98,2.50,-0.55,
05/25/2025,21:15:19.06,1017.09,-34.18,-12.21,0.27,-1.25,-0.24,
05/25/2025,21:15:19.08,996.09,-31.25,-13.18,3.81,2.84,0.49,
05/25/2025,21:15:19.10,992.19,-32.23,-5.37,0.61,3.08,-2.93,
05/25/2025,21:15:19.12,1000.49,-18.07,1.95,0.73,0.34,-0.58,
05/25/2025,21:15:19.14,1007.81,-26.86,-5.37,1.74,2.07,-3.78,
05/25/2025,21:15:19.16,1004.88,-21.48,-11.23,2.10,1.59,-2.07,
05/25/2025,21:15:19.18,1009.77,-30.76,-2.93,0.46,1.71,-1.43,
05/25/2025,21:15:19.20,1000.98,-30.27,-11.72,3.87,1.52,1.62,
05/25/2025,21:15:19.22,1011.23,-16.11,-14.16,3.45,0.85,0.55,
05/25/2025,21:15:19.24,993.16,-21.48,-17.58,1.86,2.74,-0.64,
05/25/2025,21:15:19.26,1002.44,-23.44,-12.21,2.13,1.65,-2.16,
05/25/2025,21:15:19.28,998.54,-29.30,-5.86,4.36,0.79,-2.44,
05/25/2025,21:15:19.30,1001.46,-22.46,-1.46,1.86,0.61,-3.81,
05/25/2025,21:15:19.32,994.14,-26.37,-2.93,0.70,0.21,-3.75,
05/25/2025,21:15:19.34,1006.84,-21.48,0.49,1.74,0.37,-1.98,
05/25/2025,21:15:19.36,996.09,-21.00,1.95,2.90,3.11,4.30,
05/25/2025,21:15:19.38,992.68,-17.09,-6.35,1.55,2.87,1.40,
05/25/2025,21:15:19.43,1005.37,-26.86,-15.14,1.19,3.08,1.01,
05/25/2025,21:15:19.45,1006.84,-26.37,-12.21,1.25,2.44,-0.15,
05/25/2025,21:15:19.47,995.12,-17.09,-8.79,1.43,2.59,-4.15,
05/25/2025,21:15:19.49,1000.98,-23.93,-6.84,2.50,3.78,0.46,
05/25/2025,21:15:19.51,1008.30,-20.51,-9.77,0.98,3.84,-1.40,
05/25/2025,21:15:19.53,1003.91,-25.39,-3.91,0.95,1.55,0.46,
05/25/2025,21:15:19.55,993.65,-22.46,-3.91,0.82,2.77,-1.59,
05/25/2025,21:15:19.57,997.07,-16.11,-0.49,2.07,2.35,-1.31,
05/25/2025,21:15:19.59,992.19,-30.76,-8.79,1.31,-0.18,0.06,
05/25/2025,21:15:19.61,1000.00,-28.32,-13.67,0.91,2.59,0.43,
05/25/2025,21:15:19.63,1009.77,-31.25,-6.84,1.71,1.80,-3.69,
05/25/2025,21:15:19.65,1008.30,-31.74,-13.18,1.98,3.20,-1.37,
05/25/2025,21:15:19.67,1002.44,-24.41,-14.65,1.59,2.56,0.37,
05/25/2025,21:15:19.69,994.14,-31.25,-6.84,1.28,0.52,-1.25,
05/25/2025,21:15:19.71,1003.42,-30.27,-9.28,-0.85,0.52,-1.19,
05/25/2025,21:15:19.73,1006.35,-25.88,-9.28,0.73,2.26,-2.41,
05/25/2025,21:15:19.75,1000.00,-26.37,-0.98,0.85,2.29,-0.30,
05/25/2025,21:15:19.77,999.51,-25.39,-15.62,0.30,1.55,3.20,
05/25/2025,21:15:19.79,1001.46,-38.57,-4.88,0.55,1.95,-0.34,
05/25/2025,21:15:19.81,999.02,-32.71,-10.74,1.37,3.75,1.31,
05/25/2025,21:15:19.83,1004.39,-34.67,-11.72,1.65,3.20,0.06,
05/25/2025,21:15:19.85,1001.46,-26.86,-20.51,3.23,-1.59,-3.05,
05/25/2025,21:15:19.87,998.05,-20.51,-0.49,1.07,1.55,0.64,
05/25/2025,21:15:19.89,1006.84,-27.83,-16.11,0.85,1.55,-0.52,
05/25/2025,21:15:19.94,1002.93,-25.39,-8.30,1.37,2.96,0.95,
05/25/2025,21:15:19.96,996.58,-34.18,-11.72,2.35,1.95,-1.86,
05/25/2025,21:15:19.98,998.54,-23.93,-7.81,3.72,0.98,-1.52,
05/25/2025,21:15:20.00,1005.86,-26.86,0.00,3.05,2.07,3.05,
05/25/2025,21:15:20.02,1001.95,-20.02,-6.35,1.46,0.34,1.01,
05/25/2025,21:15:20.04,1002.44,-39.06,-4.88,1.46,-0.03,-1.98,
05/25/2025,21:15:20.06,994.14,-14.16,-5.86,0.95,4.21,-1.04,
05/25/2025,21:15:20.08,1004.39,-30.76,-0.98,-0.88,2.38,0.98,
05/25/2025,21:15:20.10,1004.88,-39.55,-20.02,1.37,1.89,1.28,
05/25/2025,21:15:20.12,1000.00,-23.44,-22.95,1.83,4.27,-0.24,
05/25/2025,21:15:20.14,989.26,-16.11,-4.39,2.59,3.45,-1.68,
05/25/2025,21:15:20.16,1008.30,-31.25,-5.86,0.73,0.82,0.21,
05/25/2025,21:15:20.18,1005.37,-36.62,-11.23,2.56,1.52,1.10,
05/25/2025,21:15:20.20,1004.88,-30.76,-19.53,1.86,0.15,-1.19,
05/25/2025,21:15:20.22,986.82,-18.55,-9.28,-0.18,2.65,-0.85,
05/25/2025,21:15:20.24,1009.77,-29.30,-6.35,1.40,1.07,-0.21,
05/25/2025,21:15:20.26,999.51,-29.30,-14.16,1.62,0.15,-1.34,
05/25/2025,21:15:20.28,996.09,-22.95,-8.30,1.31,2.87,0.79,
05/25/2025,21:15:20.30,1000.00,-21.97,-16.11,0.03,2.04,-2.47,
05/25/2025,21:15:20.32,996.09,-31.25,-11.72,1.83,1.49,-4.18,
05/25/2025,21:15:20.34,1000.49,-20.51,-9.28,4.33,1.46,-0.88,
05/25/2025,21:15:20.36,986.33,-29.79,-11.23,2.13,2.65,0.40,
05/25/2025,21:15:20.38,997.56,-28.81,-10.74,2.41,2.04,1.10,
05/25/2025,21:15:20.40,1010.74,-30.76,-7.32,1.46,2.32,0.70,
05/25/2025,21:15:20.45,1009.77,-28.81,-6.35,1.22,0.73,-3.41,
05/25/2025,21:15:20.47,1009.77,-24.41,-17.09,0.46,4.02,0.15,
05/25/2025,21:15:20.49,1001.95,-26.37,-13.18,1.10,3.45,1.80,
05/25/2025,21:15:20.51,985.84,-21.00,-11.23,0.34,0.34,-0.64,
05/25/2025,21:15:20.53,1006.35,-43.46,-9.28,0.21,2.41,-1.86,
05/25/2025,21:15:20.55,995.61,-29.79,1.95,3.23,2.26,1.10,
05/25/2025,21:15:20.57,1016.60,-19.53,3.91,2.10,2.29,2.07,
05/25/2025,21:15:20.59,1005.86,-30.76,-1.95,2.62,0.30,-0.91,
05/25/2025,21:15:20.61,1011.72,-24.90,-10.74,1.95,1.04,3.05,
05/25/2025,21:15:20.63,1010.25,-34.18,-13.67,1.07,1.80,0.34,
05/25/2025,21:15:20.65,998.05,-20.51,-6.35,2.62,1.62,0.27,
05/25/2025,21:15:20.67,1003.91,-14.65,-5.86,1.31,1.46,0.61,
05/25/2025,21:15:20.69,1012.70,-46.39,-10.25,1.49,3.60,-0.37,
05/25/2025,21:15:20.71,1000.00,-20.51,-3.42,1.10,1.52,-1.49,
05/25/2025,21:15:20.73,1006.35,-30.27,-11.23,1.34,2.93,0.73,
05/25/2025,21:15:20.75,1006.35,-20.02,-5.37,1.04,0.58,-4.79,
05/25/2025,21:15:20.77,1006.84,-23.44,-6.84,3.08,1.07,-0.37,
05/25/2025,21:15:20.79,1005.86,-17.58,-15.14,4.66,2.07,-0.73,
05/25/2025,21:15:20.81,1003.91,-17.09,7.32,2.56,1.62,1.37,
05/25/2025,21:15:20.83,1010.25,-12.70,-10.25,1.68,1.71,-0.64,
05/25/2025,21:15:20.85,999.51,-27.34,-3.42,1.28,0.70,-3.60,
05/25/2025,21:15:20.87,985.35,-30.27,3.42,3.78,0.21,0.88,
05/25/2025,21:15:20.89,1012.21,-32.23,-6.35,0.73,2.29,-1.37,
05/25/2025,21:15:20.91,1003.42,-26.37,-3.91,1.49,1.62,1.89,
05/25/2025,21:15:20.96,1004.88,-31.74,-11.72,1.04,1.98,-2.23,
05/25/2025,21:15:20.98,995.61,-29.79,-10.25,1.59,5.06,-1.89,
05/25/2025,21:15:21.00,996.09,-36.62,-5.86,1.74,0.79,0.73,
05/25/2025,21:15:21.02,1005.37,-25.88,-12.70,-0.30,1.49,-1.55,
05/25/2025,21:15:21.04,997.07,-33.20,-10.25,1.55,1.95,-1.86,
05/25/2025,21:15:21.06,999.51,-18.07,-11.23,0.76,0.24,-2.74,
05/25/2025,21:15:21.08,1009.28,-30.27,-8.79,-0.43,0.15,0.09,
05/25/2025,21:15:21.10,1003.91,-28.81,-11.72,2.56,4.94,-2.93,
05/25/2025,21:15:21.12,994.14,-23.93,-11.23,2.56,2.20,2.20,
05/25/2025,21:15:21.14,1009.28,-29.79,-5.86,2.10,1.40,3.38,
05/25/2025,21:15:21.16,1007.32,-15.62,-2.44,0.95,2.13,0.43,
05/25/2025,21:15:21.18,992.68,-32.23,-13.18,1.98,3.81,-2.13,
05/25/2025,21:15:21.20,999.51,-27.34,-3.91,0.67,1.65,2.04,
05/25/2025,21:15:21.22,1006.84,-37.60,-5.86,3.02,1.31,1.83,
05/25/2025,21:15:21.24,1005.37,-30.76,-2.44,2.65,3.41,0.58,
05/25/2025,21:15:21.26,1005.86,-39.06,1.46,1.37,1.59,-0.91,
05/25/2025,21:15:21.28,993.16,-23.44,0.00,1.83,3.78,0.70,
05/25/2025,21:15:21.30,1009.28,-20.51,1.46,3.60,0.88,-0.09,
05/25/2025,21:15:21.32,997.07,-37.60,1.95,2.93,-0.70,-1.59,
05/25/2025,21:15:21.34,1002.93,-27.34,-1.95,0.15,-0.27,-1.71,
05/25/2025,21:15:21.36,996.09,-27.34,-13.67,1.40,2.32,-0.40,
05/25/2025,21:15:21.38,995.61,-31.74,-17.58,2.65,2.32,-1.62,
05/25/2025,21:15:21.40,995.61,-21.00,-9.77,1.34,1.74,0.49,
05/25/2025,21:15:21.42,1007.32,-23.93,0.49,0.82,2.74,-1.04,
05/25/2025,21:15:21.48,994.63,-24.90,-3.91,0.30,2.56,0.27,
05/25/2025,21:15:21.50,997.56,-21.00,-4.88,0.98,1.92,4.24,
05/25/2025,21:15:21.52,997.56,-23.93,-16.60,1.37,3.11,2.44,
05/25/2025,21:15:21.54,1000.98,-33.20,-15.62,0.43,0.61,-1.46,
05/25/2025,21:15:21.56,997.56,-23.44,-7.32,1.89,3.75,-3.29,
05/25/2025,21:15:21.58,994.63,-21.00,-4.88,2.44,0.79,1.22,
05/25/2025,21:15:21.60,1001.95,-23.93,-9.28,0.88,0.15,-1.25,
05/25/2025,21:15:21.62,997.07,-19.53,-11.72,2.23,3.11,0.34,
05/25/2025,21:15:21.64,998.54,-37.60,-0.49,3.45,3.29,-0.67,
05/25/2025,21:15:21.66,1012.21,-23.93,-17.58,2.96,-0.70,-0.34,
05/25/2025,21:15:21.68,1000.98,-12.21,-12.70,2.23,2.62,-0.55,
05/25/2025,21:15:21.70,1001.95,-34.18,-3.91,2.41,0.27,-2.93,
05/25/2025,21:15:21.72,995.61,-29.79,-7.32,0.58,3.26,0.91,
05/25/2025,21:15:21.74,1006.35,-32.71,-11.23,1.40,0.91,3.90,
05/25/2025,21:15:21.76,1004.39,-23.44,2.93,1.31,3.14,1.83,
05/25/2025,21:15:21.78,994.63,-23.44,-1.46,-0.03,1.62,1.43,
05/25/2025,21:15:21.80,999.51,-30.76,-4.39,1.52,1.22,-0.88,
05/25/2025,21:15:21.82,997.56,-30.76,-5.37,1.80,2.96,-1.13,
05/25/2025,21:15:21.84,982.91,-19.04,-7.32,3.38,2.77,0.49,
05/25/2025,21:15:37.70,995.61,-30.27,-11.23,-0.88,1.16,-0.21,
05/25/2025,21:15:37.76,1007.81,-28.81,2.44,0.73,1.28,-1.83,
05/25/2025,21:15:37.78,991.70,-28.81,-13.67,2.01,3.69,1.07,
05/25/2025,21:15:37.80,1005.37,-34.67,-3.91,1.59,3.48,0.76,
05/25/2025,21:15:37.82,990.72,-23.44,-9.28,1.92,1.55,-0.27,
05/25/2025,21:15:37.84,992.68,-25.39,-0.49,3.29,2.62,-1.19,
05/25/2025,21:15:37.86,1006.84,-41.50,-15.14,0.61,0.52,-1.65,
05/25/2025,21:15:37.88,1001.95,-27.34,-11.23,1.04,2.50,0.85,
05/25/2025,21:15:37.90,989.75,-25.88,-4.39,-1.83,2.93,1.65,
05/25/2025,21:15:37.92,1000.00,-22.95,-2.44,1.83,3.87,-0.18,
05/25/2025,21:15:37.94,1005.37,-25.39,-3.91,1.68,2.16,-2.35,
05/25/2025,21:15:37.96,999.51,-27.83,-4.39,0.67,3.72,-0.09,
05/25/2025,21:15:37.98,1004.88,-21.97,-0.49,2.23,2.13,3.90,
05/25/2025,21:15:38.00,993.16,-19.53,-11.23,-0.27,1.95,-2.35,
05/25/2025,21:15:38.02,997.56,-35.16,-15.14,1.10,2.41,-0.70,
05/25/2025,21:15:38.04,1001.95,-30.76,-8.79,0.09,2.10,-4.97,
05/25/2025,21:15:38.06,1001.95,-24.90,-7.32,3.08,1.62,-3.72,
05/25/2025,21:15:38.08,1001.95,-31.74,-6.35,1.19,1.07,1.25,
05/25/2025,21:15:38.10,1001.46,-19.04,-6.35,0.82,0.76,-0.06,
05/25/2025,21:15:38.12,995.12,-41.50,-6.35,2.74,0.15,-1.98,
05/25/2025,21:15:38.14,1000.00,-29.79,-4.88,3.96,1.59,2.87,
05/25/2025,21:15:38.16,990.72,-27.83,-30.27,1.92,1.89,-1.07,
05/25/2025,21:15:38.18,996.58,-24.41,-0.49,0.79,3.08,-3.08,
05/25/2025,21:15:38.20,1001.46,-39.06,-24.41,-0.37,0.95,-0.49,
05/25/2025,21:15:38.22,1004.39,-32.71,-0.49,2.23,-0.88,-1.28,
05/25/2025,21:15:38.27,988.77,-16.11,-9.28,0.49,0.82,-0.79,
05/25/2025,21:15:38.29,1009.77,-22.46,-16.11,-1.10,1.68,-1.22,
05/25/2025,21:15:38.31,1006.35,-26.37,-1.46,1.25,0.98,0.49,
05/25/2025,21:15:38.33,1001.46,-34.18,-3.91,2.59,1.37,0.55,
05/25/2025,21:15:38.35,996.58,-41.50,-2.93,2.62,0.00,4.48,
05/25/2025,21:15:38.37,995.12,-34.67,-4.39,4.51,0.82,0.95,
05/25/2025,21:15:38.39,999.02,-24.90,4.39,0.18,0.43,-2.59,
05/25/2025,21:15:38.41,1006.35,-19.04,-16.60,2.10,1.13,-0.55,
05/25/2025,21:15:38.43,1001.46,-34.18,-8.30,0.95,-1.55,-0.88,
05/25/2025,21:15:38.45,1007.81,-17.58,0.98,1.07,1.43,2.29,
05/25/2025,21:15:38.47,1000.00,-25.39,-9.28,0.09,1.07,-1.89,
05/25/2025,21:15:38.49,1001.95,-11.72,-0.49,0.15,1.59,-1.37,
05/25/2025,21:15:38.51,1003.91,-33.69,0.98,-0.30,0.40,-0.79,
05/25/2025,21:15:38.53,983.89,-32.23,-2.93,0.43,1.89,-1.89,
05/25/2025,21:15:38.55,1000.49,-21.97,-15.14,0.27,5.15,1.65,
05/25/2025,21:15:38.57,1007.32,-32.71,1.46,-0.34,3.75,0.64,
05/25/2025,21:15:38.59,1000.49,-36.13,-8.30,1.68,2.62,-1.59,
05/25/2025,21:15:38.61,1003.91,-33.20,-8.79,1.95,1.04,2.16,
05/25/2025,21:15:38.63,998.54,-28.32,-16.11,1.71,2.32,-2.68,
05/25/2025,21:15:38.65,1000.98,-23.93,6.35,-0.21,0.21,-1.68,
05/25/2025,21:15:38.67,1003.91,-32.71,-8.30,3.90,2.35,1.46,
05/25/2025,21:15:38.69,1003.42,-26.86,-5.86,2.10,2.35,-1.62,
05/25/2025,21:15:38.71,998.05,-36.13,-5.86,1.52,1.74,0.09,
05/25/2025,21:15:38.73,1004.88,-31.74,-10.74,2.53,3.35,0.18,
05/25/2025,21:15:38.80,1000.98,-30.76,-4.88,1.31,1.49,1.19,
05/25/2025,21:15:38.82,987.30,-28.32,2.93,1.89,1.74,-1.43,
05/25/2025,21:15:38.84,1004.39,-16.60,-18.07,1.86,0.40,-1.71,
05/25/2025,21:15:38.86,998.54,-24.90,-13.67,3.60,2.38,-1.04,
05/25/2025,21:15:38.88,1001.46,-34.67,-4.39,1.40,2.07,2.04,
05/25/2025,21:15:38.90,996.09,-38.09,-2.93,2.96,1.07,-1.10,
05/25/2025,21:15:38.92,1002.93,-35.64,-12.70,1.80,2.50,2.41,
05/25/2025,21:15:38.94,1004.39,-31.74,-16.11,1.31,0.98,2.71,
05/25/2025,21:15:38.96,1001.95,-18.07,-8.79,-0.46,1.89,-2.41,
05/25/2025,21:15:38.98,1008.30,-31.74,-7.81,1.55,0.52,1.49,
05/25/2025,21:15:39.00,994.14,-23.44,-9.77,0.00,2.68,-4.27,
05/25/2025,21:15:39.02,1000.49,-19.53,-12.70,0.88,0.21,0.24,
05/25/2025,21:15:39.04,1001.95,-17.58,-13.67,0.09,1.25,1.68,
05/25/2025,21:15:39.06,989.75,-18.07,-5.37,1.62,3.35,-0.06,
05/25/2025,21:15:39.08,1006.35,-25.88,-11.23,1.43,1.92,1.40,
05/25/2025,21:15:39.10,988.28,-27.83,-3.42,3.72,0.37,-2.41,
05/25/2025,21:15:39.12,1015.14,-34.67,-4.39,1.25,2.96,0.00,
05/25/2025,21:15:39.14,997.56,-21.00,-12.70,2.53,1.07,2.07,
05/25/2025,21:15:39.16,999.02,-31.25,-16.11,1.01,1.86,2.68,
05/25/2025,21:15:39.18,1001.46,-13.18,-6.84,2.26,1.92,0.91,
05/25/2025,21:15:39.20,1001.95,-31.74,-6.35,0.52,2.26,-1.49,
05/25/2025,21:15:39.22,1001.95,-12.70,-13.67,2.13,1.55,0.64,
05/25/2025,21:15:39.24,1000.49,-14.65,-3.42,2.71,3.54,0.85,
05/25/2025,21:15:39.29,1000.00,-35.64,-14.65,1.49,2.96,-1.01,
05/25/2025,21:15:39.31,983.40,-30.76,-5.86,1.04,1.52,-2.10,
05/25/2025,21:15:39.33,996.58,-20.02,-3.42,2.01,4.33,0.24,
05/25/2025,21:15:39.35,999.02,-25.39,-6.35,1.43,2.93,0.15,
05/25/2025,21:15:39.37,1007.81,-13.67,-18.07,2.07,1.13,2.01,
05/25/2025,21:15:39.39,1004.39,-9.77,-12.21,1.92,4.30,-1.28,
05/25/2025,21:15:39.41,1015.14,-23.93,-11.72,1.95,1.10,1.89,
05/25/2025,21:15:39.43,1001.46,-15.14,-11.23,1.55,1.55,1.19,
05/25/2025,21:15:39.45,999.02,-28.32,-2.44,1.07,3.41,1.71,
05/25/2025,21:15:39.47,1002.44,-39.06,-4.39,1.16,0.85,-1.13,
05/25/2025,21:15:39.49,997.07,-22.95,1.46,4.51,1.86,0.70,
05/25/2025,21:15:39.51,1005.86,-22.46,-14.16,2.50,0.73,0.21,
05/25/2025,21:15:39.53,1005.37,-22.46,-7.81,1.40,1.34,-2.50,
05/25/2025,21:15:39.55,1003.42,-37.11,-12.70,2.23,0.37,-0.27,
05/25/2025,21:15:39.57,1001.46,-41.02,-0.98,1.01,2.50,-2.01,
05/25/2025,21:15:39.59,1009.28,-24.41,-3.91,1.52,-0.34,-1.62,
05/25/2025,21:15:39.61,1009.28,-24.90,-21.00,2.26,2.13,0.52,
05/25/2025,21:15:39.63,1004.39,-25.39,-4.88,0.70,0.98,-1.65,
05/25/2025,21:15:39.65,1007.81,-31.25,-3.42,0.52,4.48,-2.41,
05/25/2025,21:15:39.67,992.68,-33.69,-2.93,1.16,3.32,0.61,
05/25/2025,21:15:39.69,1004.88,-21.48,-0.98,1.86,-0.34,0.09,
05/25/2025,21:15:39.71,1001.95,-24.90,-2.44,0.40,3.23,-0.21,
05/25/2025,21:15:39.73,996.09,-24.90,-6.35,0.76,2.80,1.68,
05/25/2025,21:15:39.75,1001.95,-26.86,-3.91,1.86,2.53,-1.68,
05/25/2025,21:15:39.80,1001.95,-27.83,-13.18,0.73,2.29,3.29,
05/25/2025,21:15:39.82,986.82,-30.27,-2.44,1.13,2.93,3.84,
05/25/2025,21:15:39.84,997.07,-21.97,-9.77,-0.24,0.76,0.79,
05/25/2025,21:15:39.86,1010.25,-25.88,-8.30,2.20,-1.25,4.94,
05/25/2025,21:15:39.88,1008.30,-26.37,-22.46,3.32,1.95,0.15,
05/25/2025,21:15:39.90,996.09,-27.34,-16.11,2.84,2.29,0.58,
05/25/2025,21:15:39.92,1006.84,-27.34,3.42,1.13,1.07,-0.55,
05/25/2025,21:15:39.94,999.51,-25.39,1.46,0.61,4.51,-1.55,
05/25/2025,21:15:39.96,999.02,-26.37,-19.04,1.74,5.70,0.00,
05/25/2025,21:15:39.98,996.58,-21.97,-0.49,-0.95,3.17,-0.21,
05/25/2025,21:15:40.00,1001.46,-32.71,-11.23,-0.18,0.76,-0.34,
05/25/2025,21:15:40.02,1007.81,-29.79,2.93,-0.43,2.84,-3.14,
05/25/2025,21:15:40.04,1008.30,-28.32,-21.00,1.31,0.27,0.98,
05/25/2025,21:15:40.07,1004.88,-33.20,-14.16,2.59,1.68,-2.44,
05/25/2025,21:15:40.09,989.26,-28.81,-7.81,2.44,1.07,0.27,
05/25/2025,21:15:40.11,1008.79,-31.25,-9.77,1.40,1.22,-1.34,
05/25/2025,21:15:40.13,1013.18,-27.34,4.88,3.69,1.89,-3.08,
05/25/2025,21:15:40.15,1009.28,-25.88,-11.72,0.91,1.80,-1.80,
05/25/2025,21:15:40.17,1000.98,-20.51,-8.30,-0.64,2.50,0.34,
05/25/2025,21:15:40.19,1005.86,-32.71,-8.79,2.01,0.06,-0.85,
05/25/2025,21:15:40.21,1000.00,-36.62,-1.95,0.61,1.89,-1.59,
05/25/2025,21:15:40.23,997.56,-21.00,-24.41,3.23,3.75,-0.82,
05/25/2025,21:15:40.25,994.63,-24.41,-11.23,2.04,3.35,0.15,
05/25/2025,21:15:40.27,1005.37,-25.39,-16.60,1.68,0.18,0.43,
05/25/2025,21:15:40.32,1011.23,-33.20,-4.39,-0.64,2.10,-1.62,
05/25/2025,21:15:40.34,1003.91,-34.18,-9.28,1.92,4.57,3.26,
05/25/2025,21:15:40.36,1008.79,-29.30,-10.74,3.14,4.33,-1.13,
05/25/2025,21:15:40.38,1000.49,-22.46,-9.28,1.46,3.14,2.56,
05/25/2025,21:15:40.40,993.16,-28.81,-16.60,2.47,1.65,0.79,
05/25/2025,21:15:40.42,1000.49,-17.09,-11.72,0.79,3.66,-1.31,
05/25/2025,21:15:40.44,1015.14,-26.37,-5.86,2.99,2.13,-1.49,
05/25/2025,21:15:40.46,1000.98,-26.86,-13.18,3.90,1.40,-1.16,
05/25/2025,21:15:40.48,1005.37,53.22,-15.62,-1.92,1.16,3.17,
05/25/2025,21:15:40.50,1014.16,73.24,-12.21,-0.52,1.92,1.89,
05/25/2025,21:15:40.52,1000.98,-108.40,9.28,5.73,1.31,1.95,
05/25/2025,21:15:40.54,998.05,-53.71,-8.79,2.16,1.92,-0.09,
05/25/2025,21:15:40.56,996.58,-22.95,-7.32,0.76,1.28,0.64,
05/25/2025,21:15:40.58,995.61,-24.41,2.93,-1.65,1.95,-2.77,
05/25/2025,21:15:40.60,999.02,-28.32,-6.35,0.70,2.44,2.44,
05/25/2025,21:15:40.62,998.05,-15.14,-3.42,0.55,0.73,-1.59,
05/25/2025,21:15:40.64,981.45,-35.16,4.88,1.95,1.37,0.27,
05/25/2025,21:15:40.66,1002.44,-32.71,4.39,3.57,1.52,-1.28,
05/25/2025,21:15:40.68,998.54,-23.44,0.49,0.55,0.76,0.00,
05/25/2025,21:15:40.70,1003.42,-25.39,-7.81,1.10,0.85,-1.13,
05/25/2025,21:15:40.72,994.14,-35.16,-11.23,2.56,2.10,-1.13,
05/25/2025,21:15:40.74,996.09,-35.64,-7.32,2.04,2.38,0.55,
05/25/2025,21:15:40.76,995.12,-34.18,-9.28,0.40,2.84,-0.76,
05/25/2025,21:15:40.78,1003.42,-27.83,-12.21,2.04,2.41,-1.31,
05/25/2025,21:15:40.83,997.56,-27.83,2.44,0.88,3.08,1.89,
05/25/2025,21:15:40.85,1003.42,-33.69,-10.25,0.55,1.07,-1.07,
05/25/2025,21:15:40.87,990.72,-21.48,-8.79,0.95,2.29,2.44,
05/25/2025,21:15:40.89,1001.46,-36.62,-4.88,0.58,0.76,-0.82,
05/25/2025,21:15:40.91,1006.35,-25.88,-8.30,5.09,2.65,-1.80,
05/25/2025,21:15:40.93,1001.46,-38.09,-12.21,3.54,2.62,0.67,
05/25/2025,21:15:40.95,1002.93,-41.02,-16.11,1.92,3.29,-1.01,
05/25/2025,21:15:40.97,1009.28,-19.53,-6.84,0.21,3.20,-1.86,
05/25/2025,21:15:40.99,992.68,-28.32,12.70,5.55,3.32,0.21,
05/25/2025,21:15:41.01,1000.00,-18.55,-11.72,1.10,2.53,-1.01,
05/25/2025,21:15:41.03,1003.42,-18.07,-17.58,3.69,1.37,2.07,
05/25/2025,21:15:41.05,995.12,-23.93,-12.70,-0.27,3.26,0.30,
05/25/2025,21:15:41.07,1013.67,-30.27,-2.44,3.96,4.66,0.95,
05/25/2025,21:15:41.09,1008.30,-27.83,-12.21,5.58,2.16,-2.10,
05/25/2025,21:15:41.11,998.05,-19.04,3.42,1.98,1.86,0.27,
05/25/2025,21:15:41.13,990.72,-15.14,-3.42,0.37,2.13,1.25,
05/25/2025,21:15:41.15,1002.93,-27.83,-9.77,2.77,-0.95,-0.95,
05/25/2025,21:15:41.17,1000.98,-32.23,-13.67,3.26,2.74,2.38,
05/25/2025,21:15:41.19,1003.91,-22.95,-2.93,2.01,3.08,3.23,
05/25/2025,21:15:41.21,1001.95,-23.93,-6.84,2.56,3.05,0.67,
05/25/2025,21:15:41.23,1006.84,-29.79,-13.67,1.77,0.73,-0.58,
05/25/2025,21:15:41.25,995.61,-36.13,0.49,1.13,2.23,-3.02,
05/25/2025,21:15:41.27,1001.46,-25.88,-7.81,-0.34,2.32,2.04,
05/25/2025,21:15:41.29,990.72,-80.08,-15.14,1.98,7.59,-0.03,
05/25/2025,21:15:41.34,1002.44,-63.48,13.67,-0.30,-1.13,-2.80,
05/25/2025,21:15:41.36,1002.93,-18.55,-10.25,0.82,0.70,-1.98,
05/25/2025,21:15:41.38,971.19,28.81,60.55,0.82,-0.73,1.71,
05/25/2025,21:15:41.40,1006.84,-31.25,-21.48,-0.06,2.32,0.55,
05/25/2025,21:15:41.42,999.51,-20.51,8.30,1.16,1.49,-0.55,
05/25/2025,21:15:41.44,1008.30,-12.70,-1.95,1.86,3.17,0.06,
05/25/2025,21:15:41.46,1002.44,-31.74,-5.37,2.13,0.27,-2.32,
05/25/2025,21:15:41.48,1005.86,-26.86,-0.98,1.01,1.74,0.67,
05/25/2025,21:15:41.50,1002.93,-31.74,-6.84,-0.61,3.41,-1.04,
05/25/2025,21:15:41.52,1005.86,-30.27,-5.86,2.26,0.27,-2.13,
05/25/2025,21:15:41.54,995.12,-29.79,-2.93,1.80,1.77,-0.37,
05/25/2025,21:15:41.56,1001.46,-37.60,6.84,1.46,2.44,2.23,
05/25/2025,21:15:41.58,1015.62,-32.23,-4.39,3.69,0.98,-1.22,
05/25/2025,21:15:41.60,1005.86,-28.81,-6.35,3.35,1.68,3.17,
05/25/2025,21:15:41.62,1009.77,-29.30,-2.93,2.80,1.10,-0.88,
05/25/2025,21:15:41.64,1001.46,-31.25,-1.95,0.37,3.38,-0.24,
05/25/2025,21:15:41.66,1010.74,-31.74,-10.74,2.99,2.10,0.91,
05/25/2025,21:15:41.68,1000.98,-26.37,3.91,0.18,1.16,1.22,
05/25/2025,21:15:41.70,997.07,-29.79,8.79,2.01,2.26,0.00,
05/25/2025,21:15:41.72,1002.93,-21.97,-13.67,0.98,1.34,0.95,
05/25/2025,21:15:41.74,988.28,-24.90,-12.21,1.43,2.62,0.40,
05/25/2025,21:15:41.76,1004.39,-34.67,-11.72,0.37,2.56,-0.82,
05/25/2025,21:15:41.78,999.51,-27.83,-4.39,1.22,1.80,-0.52,
05/25/2025,21:15:41.80,1000.49,-24.41,0.00,0.67,1.65,0.37,
05/25/2025,21:15:41.85,1003.42,-16.60,-0.98,1.68,1.86,-1.83,
05/25/2025,21:15:41.87,991.70,-28.32,-11.23,0.00,2.77,-1.40,
05/25/2025,21:15:41.89,1001.46,-21.97,-9.77,0.73,2.23,-1.31,
05/25/2025,21:15:41.91,1005.86,-22.95,-12.70,1.40,4.05,-0.18,
05/25/2025,21:15:41.93,1001.46,-24.90,-10.25,1.25,2.26,-0.79,
05/25/2025,21:15:41.95,993.65,-34.18,-5.37,3.66,1.89,-0.15,
05/25/2025,21:15:41.97,1003.42,-26.86,-2.93,2.56,1.86,0.34,
05/25/2025,21:15:41.99,990.72,-20.51,-2.93,1.49,-0.06,-2.38,
05/25/2025,21:15:42.01,998.54,-26.86,-3.42,0.88,2.13,-0.03,
05/25/2025,21:15:42.03,1003.42,-26.37,-13.18,1.25,1.98,-0.40,
05/25/2025,21:15:42.05,1003.42,-31.25,-18.07,0.73,1.55,-1.62,
05/25/2025,21:15:42.07,999.02,-24.90,-11.23,3.96,2.68,-1.25,
05/25/2025,21:15:42.09,1003.91,-38.57,-14.65,1.31,2.07,-1.16,
05/25/2025,21:15:42.11,997.56,-17.58,-17.58,2.77,0.76,-0.67,
05/25/2025,21:15:42.13,1000.49,-33.20,-6.35,0.46,2.68,1.49,
05/25/2025,21:15:42.15,1000.00,-39.06,-2.93,1.34,1.10,-2.20,
05/25/2025,21:15:42.17,1002.44,-29.79,-15.14,2.56,3.02,-2.16,
05/25/2025,21:15:42.19,1000.00,-30.27,-10.25,0.15,1.59,-1.19,
05/25/2025,21:15:42.21,995.61,-37.60,-0.49,0.06,0.27,0.27,
05/25/2025,21:15:42.23,1000.49,-19.53,2.93,0.06,1.65,-1.01,
05/25/2025,21:15:42.25,1003.91,-31.25,-19.53,1.10,1.65,-1.16,
05/25/2025,21:15:42.27,998.05,-25.39,-5.37,0.40,2.16,-2.38,
05/25/2025,21:15:42.29,991.21,-27.83,-4.88,2.68,1.74,-0.06,
05/25/2025,21:15:42.31,994.14,-23.93,-0.98,1.80,4.79,-1.49,
05/25/2025,21:15:42.36,1004.39,-9.77,-1.95,0.46,1.52,0.09,
05/25/2025,21:15:42.38,1001.46,-19.53,-17.58,0.24,4.48,2.50,
05/25/2025,21:15:42.40,1008.30,-26.86,2.44,3.02,2.80,1.62,
05/25/2025,21:15:42.42,1004.88,-19.53,-3.42,-1.22,3.26,-1.28,
05/25/2025,21:15:42.44,990.23,-19.04,1.46,-3.41,6.59,-0.64,
05/25/2025,21:15:42.46,1001.95,-25.88,2.44,1.59,3.66,-1.98,
05/25/2025,21:15:42.48,998.54,-24.90,-4.39,0.43,1.13,-0.95,
05/25/2025,21:15:42.50,1000.49,-24.41,-4.88,1.89,1.01,-2.41,
05/25/2025,21:15:42.52,1010.25,-32.23,-8.79,1.01,3.11,0.46,
05/25/2025,21:15:42.54,983.40,-31.74,5.86,2.53,0.09,-1.37,
05/25/2025,21:15:42.56,1003.91,-20.51,14.16,2.59,1.07,-0.55,
05/25/2025,21:15:42.58,1000.49,-2.44,-6.84,0.79,1.13,2.68,
05/25/2025,21:15:42.60,1002.44,-36.13,-14.65,-1.49,1.59,-2.41,
05/25/2025,21:15:42.62,997.56,-90.82,28.32,1.34,1.74,-1.40,
05/25/2025,21:15:42.64,986.33,-78.61,14.16,1.71,1.10,-2.41,
05/25/2025,21:15:42.66,988.77,36.13,28.32,3.57,5.70,-3.11,
05/25/2025,21:15:42.68,1008.79,-43.95,-8.30,1.55,3.20,-1.13,
05/25/2025,21:15:42.70,998.05,41.50,-2.93,-2.44,-1.43,-0.95,
05/25/2025,21:15:42.72,998.05,-25.39,-15.62,-1.55,0.46,2.26,
05/25/2025,21:15:42.74,994.14,-42.48,-3.42,0.00,-2.38,0.40,
05/25/2025,21:15:42.76,1000.98,-41.99,-6.84,-0.79,-0.21,1.07,
05/25/2025,21:15:42.78,1004.39,-31.25,-7.32,2.41,0.98,2.62,
05/25/2025,21:15:42.80,1005.86,-15.14,-14.65,2.99,-0.55,-0.95,
05/25/2025,21:15:42.82,990.72,-30.27,2.44,4.94,1.62,-3.45,
05/25/2025,21:15:42.87,1002.44,-30.27,-28.32,10.18,2.80,-1.25,
05/25/2025,21:15:42.89,1009.77,-27.34,-9.77,9.02,-0.82,-0.09,
05/25/2025,21:15:42.91,1004.88,-33.20,-17.58,4.33,-1.65,-1.80,
05/25/2025,21:15:42.93,1000.49,-28.32,-8.30,1.04,2.10,0.49,
05/25/2025,21:15:42.95,998.05,-32.23,-10.25,-1.25,3.23,-2.04,
05/25/2025,21:15:42.97,1009.28,-60.06,7.81,-1.74,7.01,-1.19,
05/25/2025,21:15:42.99,996.58,-0.49,-14.16,-3.05,3.29,-0.24,
05/25/2025,21:15:43.01,997.07,-9.28,4.39,-3.32,5.98,-0.52,
05/25/2025,21:15:43.03,1004.39,-23.93,5.86,1.71,2.77,0.03,
05/25/2025,21:15:43.05,1005.86,-23.93,-4.39,1.40,0.61,-1.37,
05/25/2025,21:15:43.07,997.56,-27.83,-8.30,2.71,0.91,-2.29,
05/25/2025,21:15:43.09,998.05,-28.81,-18.07,1.98,3.66,0.30,
05/25/2025,21:15:43.11,1003.91,-20.51,-11.72,0.21,3.14,-1.80,
05/25/2025,21:15:43.13,1003.42,-32.23,-2.93,0.55,2.13,-1.49,
05/25/2025,21:15:43.15,999.02,-25.88,4.39,-3.11,2.32,-2.32,
05/25/2025,21:15:43.17,1003.42,-20.02,5.37,-0.06,1.28,-2.53,
05/25/2025,21:15:43.19,940.92,41.02,14.65,-1.19,3.69,4.79,
05/25/2025,21:15:43.21,989.75,-26.86,5.37,0.98,3.08,-1.19,
05/25/2025,21:15:43.23,998.05,-20.51,0.00,0.79,2.56,-0.88,
05/25/2025,21:15:43.25,1002.93,-32.23,-2.93,1.04,1.16,-3.11,
05/25/2025,21:15:43.27,1016.60,-45.90,-9.77,-0.46,1.52,-4.66,
05/25/2025,21:15:43.29,987.79,-17.09,33.69,-1.04,2.56,-0.55,
05/25/2025,21:15:43.31,1000.00,-49.32,-90.33,7.50,-0.64,0.18,
05/25/2025,21:15:43.33,1009.77,-17.09,1.95,2.80,3.57,0.06,
05/25/2025,21:15:43.39,1001.46,-22.95,1.95,1.59,2.80,2.53,
05/25/2025,21:15:43.41,989.75,-35.16,1.46,3.29,0.37,-0.09,
05/25/2025,21:15:43.43,1002.93,-29.79,-7.81,2.13,1.46,1.31,
05/25/2025,21:15:43.45,998.54,-31.25,8.30,6.98,-2.53,2.23,
05/25/2025,21:15:43.47,999.51,-37.11,-3.91,6.46,1.89,0.12,
05/25/2025,21:15:43.49,1000.00,-24.41,-8.30,1.16,2.01,-0.61,
05/25/2025,21:15:43.51,1011.23,-21.00,0.00,-1.34,2.29,-0.03,
05/25/2025,21:15:43.53,997.56,-27.34,4.39,0.91,2.26,-2.29,
05/25/2025,21:15:43.55,1000.00,-28.32,-16.60,1.13,-0.43,0.76,
05/25/2025,21:15:43.57,1003.91,-37.11,3.42,3.84,0.15,1.71,
05/25/2025,21:15:43.59,994.63,-27.83,-15.14,1.74,2.23,-1.28,
05/25/2025,21:15:43.61,1003.42,-31.74,0.49,2.90,0.85,0.46,
05/25/2025,21:15:43.63,995.12,-34.18,5.37,-1.49,2.01,-0.03,
05/25/2025,21:15:43.65,1013.18,-28.81,8.79,4.42,-1.80,-2.80,
05/25/2025,21:15:43.67,1000.00,-37.11,-10.74,3.41,-1.37,2.38,
05/25/2025,21:15:43.69,993.65,-17.58,-7.32,2.13,-0.21,0.73,
05/25/2025,21:15:43.71,994.14,-27.83,-6.84,2.80,0.37,0.18,
05/25/2025,21:15:43.73,999.02,-28.81,-5.37,4.02,1.46,-1.43,
05/25/2025,21:15:43.75,1000.49,-32.23,-1.95,4.24,-0.76,0.40,
05/25/2025,21:15:43.77,994.63,-29.30,-4.39,2.77,-0.58,0.88,
05/25/2025,21:15:43.79,999.02,-41.50,-19.53,2.77,2.56,0.03,
05/25/2025,21:15:43.81,986.33,-21.97,-3.42,1.68,1.68,0.18,
05/25/2025,21:15:43.84,1008.30,-31.74,0.49,0.79,2.71,-0.55,
05/25/2025,21:15:43.86,1009.28,-33.20,-3.42,1.80,2.71,-2.35,
05/25/2025,21:15:43.90,1004.88,-34.18,-7.81,0.00,3.11,2.01,
05/25/2025,21:15:43.93,1000.00,-26.86,1.95,2.62,1.10,1.01,
05/25/2025,21:15:43.95,1001.95,-29.79,0.49,4.97,-2.32,0.73,
05/25/2025,21:15:43.97,1010.74,-29.30,-17.09,6.19,0.79,0.88,
05/25/2025,21:15:43.99,962.40,-46.88,15.14,1.71,3.02,8.48,
05/25/2025,21:15:44.01,1002.93,-35.16,-0.49,4.73,-2.32,1.80,
05/25/2025,21:15:44.03,1014.65,-35.16,-13.18,5.85,-2.47,6.80,
05/25/2025,21:15:44.05,990.23,-36.62,-2.44,7.80,-1.89,5.82,
05/25/2025,21:15:44.07,999.02,-19.04,9.28,8.17,-3.87,0.55,
05/25/2025,21:15:44.09,1002.44,-42.97,-13.67,5.88,-0.88,3.54,
05/25/2025,21:15:44.11,994.14,-48.34,-19.53,0.43,1.13,1.65,
05/25/2025,21:15:44.13,1002.93,-38.09,-7.32,-0.49,5.12,0.46,
05/25/2025,21:15:44.15,1017.58,-39.55,-13.67,-1.07,2.23,0.09,
05/25/2025,21:15:44.17,1004.88,-44.43,-23.44,1.74,0.70,-3.60,
05/25/2025,21:15:44.19,1001.95,-34.67,-4.88,1.52,2.80,-2.04,
05/25/2025,21:15:44.21,1005.86,-36.13,-16.11,-0.55,4.27,-2.13,
05/25/2025,21:15:44.23,998.54,-42.97,-14.65,2.01,1.04,0.34,
05/25/2025,21:15:44.25,992.19,-36.13,-14.16,4.85,-1.22,-0.95,
05/25/2025,21:15:44.27,997.56,-40.53,-16.60,3.29,0.67,-1.28,
05/25/2025,21:15:44.29,1001.95,-43.95,-11.72,-0.43,2.84,-2.16,
05/25/2025,21:15:44.31,990.23,-39.06,-12.21,-0.37,2.44,-0.55,
05/25/2025,21:15:44.33,995.12,-40.04,-11.23,-1.04,4.24,-4.12,
05/25/2025,21:15:44.35,1004.39,-41.02,-0.49,-0.43,3.48,0.98,
05/25/2025,21:15:44.37,1004.39,-41.99,2.93,3.26,-0.49,-0.95,
05/25/2025,21:15:44.42,1004.39,-30.76,-4.39,1.37,4.97,1.19,
05/25/2025,21:15:44.44,1013.67,-43.95,-3.42,0.95,5.46,2.01,
05/25/2025,21:15:44.46,994.63,-47.85,-16.60,0.00,5.73,-0.34,
05/25/2025,21:15:44.48,1015.14,-38.09,-5.86,-2.10,3.69,-0.18,
05/25/2025,21:15:44.50,1000.98,-45.90,-8.30,0.30,3.96,-0.61,
05/25/2025,21:15:44.52,998.05,-37.60,3.42,0.49,3.54,-0.30,
05/25/2025,21:15:44.54,1005.86,-44.43,-25.88,2.01,1.86,0.64,
05/25/2025,21:15:44.56,994.63,-51.76,-11.72,2.23,0.18,0.49,
05/25/2025,21:15:44.58,998.05,-36.62,-2.93,0.21,2.29,-2.01,
05/25/2025,21:15:44.60,1002.44,-27.34,-13.18,-1.59,4.82,0.03,
05/25/2025,21:15:44.62,994.63,-39.06,2.93,2.32,4.05,1.10,
05/25/2025,21:15:44.64,1001.46,-35.64,-7.32,4.45,-1.22,-0.79,
05/25/2025,21:15:44.66,1001.46,-46.88,-2.44,5.70,1.13,-0.43,
05/25/2025,21:15:44.68,1011.23,-33.69,-9.77,3.08,1.55,-0.37,
05/25/2025,21:15:44.70,1004.39,-34.18,-9.77,-0.82,6.01,0.37,
05/25/2025,21:15:44.72,999.02,-26.86,-27.34,-0.37,6.40,-0.76,
05/25/2025,21:15:44.74,1003.91,-56.15,-10.74,1.52,2.90,0.00,
05/25/2025,21:15:44.76,1002.44,-49.80,-11.23,3.32,0.49,-1.07,
05/25/2025,21:15:44.78,997.56,-29.79,-8.30,2.26,0.95,-2.16,
05/25/2025,21:15:44.80,1011.23,-62.50,12.70,0.15,2.29,2.84,
05/25/2025,21:15:44.82,1008.79,-36.62,1.46,7.32,-4.60,-0.18,
05/25/2025,21:15:44.84,994.14,-41.50,-11.23,7.71,-2.77,3.20,
05/25/2025,21:15:44.86,1003.91,-40.53,-23.44,5.21,0.03,-1.25,
05/25/2025,21:15:44.88,998.54,-48.83,-5.37,1.62,1.04,-0.82,
05/25/2025,21:15:44.93,991.70,-38.09,-5.86,-2.77,6.92,-5.27,
05/25/2025,21:15:44.95,995.61,-31.25,-1.95,-5.00,6.89,-5.03,
05/25/2025,21:15:44.97,981.45,-16.60,-13.18,-3.54,13.54,-4.27,
05/25/2025,21:15:44.99,1008.30,-0.49,0.00,-1.13,10.52,-5.18,
05/25/2025,21:15:45.01,1028.81,-19.53,17.58,0.46,23.38,-3.45,
05/25/2025,21:15:45.03,1027.34,-7.32,4.88,-8.41,22.59,0.52,
05/25/2025,21:15:45.05,996.09,-16.11,27.34,-7.38,11.07,7.77,
05/25/2025,21:15:45.07,965.82,-53.22,-44.92,1.40,-20.34,10.15,
05/25/2025,21:15:45.09,994.14,-73.73,-12.70,0.79,-31.43,-1.92,
05/25/2025,21:15:45.11,941.41,-53.22,15.62,11.31,-51.37,-7.93,
05/25/2025,21:15:45.13,1022.46,-52.73,-70.31,26.34,-18.66,-8.72,
05/25/2025,21:15:45.15,1059.57,-16.60,-85.94,14.82,15.37,10.82,
05/25/2025,21:15:45.17,1047.85,-66.89,-49.32,-5.15,23.23,8.96,
05/25/2025,21:15:45.19,1020.02,-48.83,-21.48,5.40,78.11,-8.08,
05/25/2025,21:15:45.21,1009.77,-54.20,-45.90,12.35,144.12,-3.05,
05/25/2025,21:15:45.23,1044.92,-57.62,46.88,5.40,241.04,1.92,
05/25/2025,21:15:45.25,1085.45,-54.20,186.04,-11.92,331.80,16.98,
05/25/2025,21:15:45.27,1116.21,-42.97,1195.80,-22.59,346.74,22.80,
05/25/2025,21:15:45.29,899.41,-175.78,232.91,11.43,181.04,47.13,
05/25/2025,21:15:45.31,934.08,-146.48,186.52,-0.12,258.02,51.55,
05/25/2025,21:15:45.33,782.71,-97.66,631.35,28.02,414.54,33.20,
05/25/2025,21:15:45.35,797.36,-148.93,751.95,45.15,514.12,65.34,
05/25/2025,21:15:45.37,260.25,-205.08,914.55,37.99,469.85,33.75,
05/25/2025,21:15:45.39,405.76,-123.54,785.64,30.43,409.91,80.27,
05/25/2025,21:15:45.44,446.29,-314.45,-1870.12,25.67,380.12,40.52,
05/25/2025,21:15:45.46,95.21,-83.98,1040.53,82.44,383.32,7.20,
05/25/2025,21:15:45.48,-130.37,-49.80,1105.47,52.62,409.66,29.39,
05/25/2025,21:15:45.50,-214.84,-56.15,1041.50,21.28,353.51,25.46,
05/25/2025,21:15:45.52,-416.02,-24.41,826.17,26.92,366.40,10.85,
05/25/2025,21:15:45.54,-465.82,-47.85,885.25,21.83,350.95,1.68,
05/25/2025,21:15:45.56,-474.12,-25.88,871.58,30.61,178.57,-16.80,
05/25/2025,21:15:45.58,-469.73,-58.59,734.86,17.84,289.57,-12.99,
05/25/2025,21:15:45.60,-576.66,-95.70,583.98,14.39,405.98,-3.81,
05/25/2025,21:15:45.62,-858.89,-8.79,651.86,35.43,295.00,8.57,
05/25/2025,21:15:45.64,-785.16,5.86,582.03,34.82,235.70,3.63,
05/25/2025,21:15:45.66,-861.82,29.79,560.55,25.00,198.05,-3.48,
05/25/2025,21:15:45.68,-936.04,41.02,536.62,13.84,123.48,-6.86,
05/25/2025,21:15:45.70,-923.83,-1.46,467.29,-2.07,117.01,-5.06,
05/25/2025,21:15:45.72,-869.14,-24.90,471.68,4.66,133.35,-11.65,
05/25/2025,21:15:45.74,-928.22,14.65,409.67,-3.72,130.27,-22.74,
05/25/2025,21:15:45.76,-959.96,-9.28,340.82,-21.49,89.42,-23.41,
05/25/2025,21:15:45.78,-776.37,-38.57,226.07,4.05,155.00,-14.09,
05/25/2025,21:15:45.80,-1012.70,-30.27,253.91,-6.71,164.85,-4.76,
05/25/2025,21:15:45.82,-912.60,-44.92,166.99,-9.21,157.84,-0.34,
05/25/2025,21:15:45.84,-1181.15,-67.38,90.82,-0.73,170.49,8.11,
05/25/2025,21:15:45.86,-976.07,-11.72,3.91,1.16,177.23,-2.01,
05/25/2025,21:15:45.88,-974.61,-36.62,-123.05,7.68,219.12,23.20,
05/25/2025,21:15:45.90,-1087.40,-41.02,-18.07,-14.02,185.61,10.00,
05/25/2025,21:15:45.95,-1028.32,-16.11,-251.95,-7.44,88.60,8.20,
05/25/2025,21:15:45.97,-964.84,29.30,-253.91,7.56,100.64,11.92,
05/25/2025,21:15:45.99,-954.10,1.46,-291.50,19.05,61.65,-17.84,
05/25/2025,21:15:46.01,-939.94,5.86,-202.64,26.16,22.23,1.83,
05/25/2025,21:15:46.03,-1064.94,13.67,-190.92,20.95,5.55,5.91,
05/25/2025,21:15:46.05,-1006.84,45.41,-249.51,15.12,-28.32,-3.81,
05/25/2025,21:15:46.07,-985.35,-27.34,-265.62,3.11,-67.84,-12.38,
05/25/2025,21:15:46.09,-1037.11,25.88,-239.75,6.25,-87.10,-16.37,
05/25/2025,21:15:46.11,-936.52,0.98,-218.26,14.12,-99.39,-5.73,
05/25/2025,21:15:46.13,-1005.37,-24.41,-196.78,24.45,-47.23,5.43,
05/25/2025,21:15:46.15,-977.05,-0.98,-168.46,14.45,-12.68,-2.59,
05/25/2025,21:15:46.17,-953.61,-9.28,-74.22,1.49,-16.40,9.18,
05/25/2025,21:15:46.19,-975.10,-15.62,-130.37,7.93,-28.78,20.76,
05/25/2025,21:15:46.21,-972.17,-6.84,-134.28,5.73,-19.54,13.66,
05/25/2025,21:15:46.23,-982.42,-26.86,-116.21,5.21,-13.38,4.18,
05/25/2025,21:15:46.25,-1025.39,-21.97,-113.28,4.24,5.30,8.66,
05/25/2025,21:15:46.27,-982.42,25.88,-153.81,2.87,-7.04,3.23,
05/25/2025,21:15:46.29,-970.21,-12.70,-114.75,0.03,-24.39,11.92,
05/25/2025,21:15:46.31,-1059.08,-40.04,-25.88,-8.02,-45.18,-10.03,
05/25/2025,21:15:46.33,-870.12,-36.62,-254.88,-1.43,-28.02,-7.59,
05/25/2025,21:15:46.35,-971.68,42.48,-64.45,-11.31,-10.98,-34.33,
05/25/2025,21:15:46.37,-999.51,-14.16,-56.64,-9.91,-1.49,-3.87,
05/25/2025,21:15:46.39,-1040.04,-47.85,-27.83,-0.58,-0.55,-7.35,
05/25/2025,21:15:46.41,-1011.72,-10.74,-77.15,-0.61,-34.33,-8.54,
05/25/2025,21:15:46.46,-1000.49,-14.65,-37.11,-12.41,-8.26,-5.52,
05/25/2025,21:15:46.48,-992.19,-12.70,-48.34,-9.09,0.70,-3.11,
05/25/2025,21:15:46.50,-1001.95,-0.98,-28.81,-12.23,0.24,0.73,
05/25/2025,21:15:46.52,-1009.28,-17.58,-20.51,-7.68,1.95,-1.16,
05/25/2025,21:15:46.54,-1037.60,-13.67,-84.47,2.04,-23.96,0.64,
05/25/2025,21:15:46.56,-998.54,45.41,-33.20,9.39,-51.46,2.62,
05/25/2025,21:15:46.58,-988.28,24.90,-5.86,-1.34,-17.68,-2.93,
05/25/2025,21:15:46.60,-1010.74,-16.11,-2.93,-10.18,-12.04,-1.74,
05/25/2025,21:15:46.62,-1004.88,-23.93,8.30,-7.41,-10.43,-2.77,
05/25/2025,21:15:46.64,-1010.25,-11.23,0.49,-1.62,-7.10,-1.92,
05/25/2025,21:15:46.66,-961.43,-130.86,682.13,-73.90,26.49,32.44,
05/25/2025,21:15:46.68,-1041.99,-62.50,-1786.13,74.79,-33.14,-27.04,
05/25/2025,21:15:46.71,-1010.25,-50.29,71.29,22.68,-8.87,-15.52,
05/25/2025,21:15:46.73,-921.39,-207.52,-928.71,44.57,51.28,-5.12,
05/25/2025,21:15:46.75,-966.80,-28.32,-230.96,18.23,51.74,-14.18,
05/25/2025,21:15:46.77,-1018.07,-57.62,-18.55,11.40,11.25,-19.54,
05/25/2025,21:15:46.79,-993.65,-0.49,16.60,1.13,11.92,-1.34,
05/25/2025,21:15:46.81,-990.72,-1.46,3.42,-6.01,16.13,-1.04,
05/25/2025,21:15:46.83,-1002.44,16.60,28.32,113.08,29.51,-45.00,
05/25/2025,21:15:46.85,-1020.02,-20.02,50.29,-7.47,7.71,5.00,
05/25/2025,21:15:46.87,-1016.60,-32.23,-29.79,11.37,0.34,0.46,
05/25/2025,21:15:46.89,-1008.30,120.12,428.22,56.95,4.63,-7.38,
05/25/2025,21:15:46.91,-980.96,-78.12,-210.45,10.82,-8.75,-0.91,
05/25/2025,21:15:46.93,-1157.23,-25.88,133.79,-5.82,0.58,1.40,
05/25/2025,21:15:46.98,-996.09,-27.83,-13.18,1.01,2.87,0.06,
05/25/2025,21:15:47.00,-1000.00,-29.79,-9.28,0.43,2.44,1.37,
05/25/2025,21:15:47.02,-998.05,-16.60,-16.11,0.12,3.48,-2.47,
05/25/2025,21:15:47.04,-992.68,-36.13,-9.28,1.07,-1.71,1.80,
05/25/2025,21:15:47.06,-1003.91,-34.18,-15.62,4.02,1.07,-0.82,
05/25/2025,21:15:47.08,-999.02,-16.60,-11.72,2.65,0.24,-1.80,
05/25/2025,21:15:47.10,-1024.41,-26.86,-17.58,2.20,3.32,0.64,
05/25/2025,21:15:47.12,-998.05,-41.50,-9.28,1.49,3.90,-0.24,
05/25/2025,21:15:47.14,-1002.44,-27.34,-9.77,2.01,3.75,0.55,
05/25/2025,21:15:47.16,-997.07,-26.37,-2.44,4.30,1.74,-3.57,
05/25/2025,21:15:47.18,-1004.39,-25.39,-43.46,4.24,-1.43,0.43,
05/25/2025,21:15:47.20,-1006.35,-32.23,-9.28,1.83,2.53,-2.93,
05/25/2025,21:15:47.22,-991.70,-38.57,-16.11,1.89,3.23,-2.04,
05/25/2025,21:15:47.24,-1009.77,-25.39,-21.00,5.12,0.79,-3.93,
05/25/2025,21:15:47.26,-997.56,-37.11,-12.70,0.21,1.31,-1.40,
05/25/2025,21:15:47.28,-989.75,-26.37,-22.46,-0.06,2.16,-0.37,
05/25/2025,21:15:47.30,-1003.91,-24.90,-10.25,1.55,2.65,-0.43,
05/25/2025,21:15:47.32,-998.54,-29.30,-26.37,0.79,0.79,0.34,
05/25/2025,21:15:47.34,-1009.28,-29.79,-10.74,1.89,1.95,-2.41,
05/25/2025,21:15:47.36,-1005.86,-24.41,-11.23,0.85,1.13,4.24,
05/25/2025,21:15:47.38,-1002.93,-30.76,-17.09,0.43,1.71,-3.05,
05/25/2025,21:15:47.40,-1000.49,-36.62,-11.23,1.25,2.68,-3.57,
05/25/2025,21:15:47.42,-991.21,-31.74,-13.67,2.35,0.64,-0.58,
05/25/2025,21:15:47.44,-999.02,-33.69,-3.91,1.34,0.73,-4.73,
05/25/2025,21:15:47.49,-1005.37,-22.46,-16.11,0.58,1.10,-2.32,
05/25/2025,21:15:47.51,-990.72,-21.48,-16.11,0.58,3.41,0.37,
05/25/2025,21:15:47.53,-995.61,-30.76,-17.09,-0.61,2.74,-2.65,
05/25/2025,21:15:47.55,-1021.00,-28.81,-18.07,0.98,2.77,-1.01,
05/25/2025,21:15:47.57,-987.30,-34.18,-16.60,0.79,3.41,-2.84,
05/25/2025,21:15:47.59,-991.21,-29.30,-12.70,0.15,5.18,-2.99,
05/25/2025,21:15:47.61,-999.51,-135.74,1.46,-1.31,2.93,0.88,
05/25/2025,21:15:47.63,-996.58,-24.41,-14.16,1.16,1.01,-0.46,
05/25/2025,21:15:47.65,-1010.25,-31.74,-20.51,1.92,2.44,-3.48,
05/25/2025,21:15:47.67,-1000.49,-20.51,-9.77,0.88,2.41,-2.35,
05/25/2025,21:15:47.69,-1000.98,-30.27,-0.98,2.20,2.62,4.09,
05/25/2025,21:15:47.71,-994.14,-42.48,-29.30,1.89,1.52,0.76,
05/25/2025,21:15:47.73,-1015.62,-27.83,-15.62,0.58,1.95,2.38,
05/25/2025,21:15:47.75,-1013.67,-13.67,-29.79,1.68,0.12,-4.70,
05/25/2025,21:15:47.77,-998.05,-30.76,-15.62,2.20,-0.73,1.43,
05/25/2025,21:15:47.79,-1011.72,-31.74,-21.00,2.20,0.73,1.07,
05/25/2025,21:15:47.81,-1006.35,-22.46,-24.90,1.74,-2.56,-1.46,
05/25/2025,21:15:47.83,-991.21,-23.93,-11.23,0.70,-0.79,-3.41,
05/25/2025,21:15:47.85,-992.19,-29.30,-11.23,-1.65,6.68,0.21,
05/25/2025,21:15:47.87,-1005.86,-37.11,-19.53,1.83,4.12,-0.40,
05/25/2025,21:15:47.89,-990.23,-11.72,-17.09,2.07,-0.24,2.29,
05/25/2025,21:15:47.91,-991.70,-14.16,-16.11,0.82,2.01,-0.67,
05/25/2025,21:15:47.93,-1004.39,-27.83,-32.23,1.83,1.37,-1.83,
05/25/2025,21:15:47.95,-994.14,-21.48,-30.76,0.15,2.07,-0.03,
05/25/2025,21:15:48.00,-1002.93,-15.62,-13.67,5.70,-3.32,-1.95,
05/25/2025,21:15:48.02,-1008.30,-21.00,-18.55,1.68,-4.45,-1.98,
05/25/2025,21:15:48.04,-1003.42,-22.95,-9.28,0.34,1.10,0.98,
05/25/2025,21:15:48.06,-997.07,-31.25,-14.16,2.10,0.79,2.90,
05/25/2025,21:15:48.08,-1004.39,-16.11,-8.79,-0.09,0.88,-1.46,
05/25/2025,21:15:48.10,-992.19,-7.81,-12.70,0.43,1.10,1.28,
05/25/2025,21:15:48.12,-987.79,-26.86,-6.84,-2.26,-0.30,-4.24,
05/25/2025,21:15:48.14,-993.16,-23.93,-6.35,0.61,1.31,-0.49,
05/25/2025,21:15:48.16,-1012.70,-6.84,-3.91,0.76,5.06,0.91,
05/25/2025,21:15:48.18,-1004.39,-38.57,-4.88,4.63,0.61,2.53,
05/25/2025,21:15:48.20,-989.75,-27.34,-8.79,-7.99,2.99,4.21,
05/25/2025,21:15:48.22,-1009.28,-21.97,-8.30,0.21,2.56,-3.96,
05/25/2025,21:15:48.24,-995.61,-33.20,-6.35,2.07,3.35,1.28,
05/25/2025,21:15:48.26,-995.12,-24.41,-7.32,0.46,-0.09,-3.17,
05/25/2025,21:15:48.28,-1006.35,-19.53,5.37,1.16,3.60,0.95,
05/25/2025,21:15:48.30,-1005.37,-16.60,-16.11,1.37,2.16,-0.52,
05/25/2025,21:15:48.32,-988.77,-32.23,-3.91,1.77,-0.49,-1.80,
05/25/2025,21:15:48.34,-1000.49,-18.55,3.91,0.88,0.88,-0.27,
05/25/2025,21:15:48.36,-1005.37,-19.53,-15.62,0.98,1.68,2.26,
05/25/2025,21:15:48.38,-998.54,-16.11,-7.81,1.95,1.22,-1.07,
05/25/2025,21:15:48.40,-997.56,-18.07,-22.46,1.65,2.62,0.95,
05/25/2025,21:15:48.42,-998.05,-21.00,-20.02,1.28,2.96,-2.01,
05/25/2025,21:15:48.44,-979.98,-30.76,-29.79,2.96,2.26,0.67,
05/25/2025,21:15:48.46,-1002.93,-34.18,-19.53,0.73,1.22,-1.83,
05/25/2025,21:15:48.51,-1006.35,-29.30,-10.74,0.91,1.77,0.64,
05/25/2025,21:15:48.53,-1003.91,-40.04,-4.39,2.29,0.88,-1.10,
05/25/2025,21:15:48.55,-1000.98,-24.41,0.98,0.58,2.56,-2.53,
05/25/2025,21:15:48.57,-995.12,-27.34,-3.91,2.68,2.56,1.62,
05/25/2025,21:15:48.59,-1006.84,-28.32,-9.77,0.43,2.16,-2.01,
05/25/2025,21:15:48.61,-999.51,-23.93,-11.23,2.80,0.09,2.68,
05/25/2025,21:15:48.63,-1006.35,-24.41,-20.02,3.48,0.67,-0.46,
05/25/2025,21:15:48.65,-1004.88,-24.41,-4.88,0.82,1.01,3.72,
05/25/2025,21:15:48.67,-997.07,-22.46,-14.16,0.91,0.98,-0.64,
05/25/2025,21:15:48.69,-1003.42,-31.25,-18.07,0.00,3.63,2.53,
05/25/2025,21:15:48.71,-989.75,-24.90,-3.42,2.41,3.32,0.70,
05/25/2025,21:15:48.73,-996.58,-24.90,-10.25,4.09,-2.93,-1.22,
05/25/2025,21:15:48.75,-1002.44,-39.06,-10.74,-11.46,6.83,8.17,
05/25/2025,21:15:48.77,-995.12,-16.60,5.37,0.27,0.43,1.92,
05/25/2025,21:15:48.79,-987.30,-28.32,-10.74,1.19,3.20,0.06,
05/25/2025,21:15:48.81,-1003.91,-20.51,-1.46,3.87,-0.82,0.95,
05/25/2025,21:15:48.83,-997.07,-38.57,2.44,2.90,0.46,-1.68,
05/25/2025,21:15:48.85,-999.02,-22.95,-5.86,0.40,0.76,-2.50,
05/25/2025,21:15:48.87,-1010.74,-21.48,-3.91,1.43,3.23,-1.62,
05/25/2025,21:15:48.89,-1002.44,-23.93,-20.02,-0.18,4.12,-0.30,
05/25/2025,21:15:48.91,-995.61,-23.44,-2.44,1.59,2.62,-1.37,
05/25/2025,21:15:48.93,-1002.93,-31.74,-7.81,2.20,3.63,1.01,
05/25/2025,21:15:48.95,-994.14,-23.93,-20.02,-0.09,2.16,1.77,
05/25/2025,21:15:48.97,-1000.00,-36.13,5.37,0.00,2.87,1.25,
05/25/2025,21:15:49.02,-1002.44,-23.44,-6.35,2.99,1.10,-1.52,
05/25/2025,21:15:49.04,-1003.42,-27.34,-0.98,3.11,1.74,-0.21,
05/25/2025,21:15:49.06,-990.72,-37.11,-7.32,0.95,1.37,1.37,
05/25/2025,21:15:49.08,-1004.39,-29.30,-10.25,1.89,-1.13,1.74,
05/25/2025,21:15:49.10,-1003.42,-22.95,-17.58,1.13,1.16,-0.70,
05/25/2025,21:15:49.12,-1000.49,-36.13,-22.95,1.13,1.40,-1.46,
05/25/2025,21:15:49.14,-996.09,-33.20,-13.67,1.13,-0.37,0.79,
05/25/2025,21:15:49.16,-1006.35,-18.55,-12.70,1.52,0.91,-3.20,
05/25/2025,21:15:49.18,-1000.00,-30.76,5.86,2.84,2.13,0.73,
05/25/2025,21:15:49.20,-993.16,-37.60,4.88,2.90,0.15,-1.40,
05/25/2025,21:15:49.22,-995.12,-18.07,0.49,3.72,0.76,0.95,
05/25/2025,21:15:49.24,-1003.42,-30.27,-10.74,1.71,3.63,-0.64,
05/25/2025,21:15:49.26,-1000.00,-22.46,-9.77,0.95,0.88,-2.13,
05/25/2025,21:15:49.28,-1015.62,-21.48,-15.14,-0.37,3.38,-3.51,
05/25/2025,21:15:49.30,-996.58,-29.79,-22.95,1.07,2.96,-0.55,
05/25/2025,21:15:49.32,-993.16,-21.48,-14.16,0.09,1.98,-5.00,
05/25/2025,21:15:49.34,-1001.95,-21.48,-19.53,1.25,2.01,-1.49,
05/25/2025,21:15:49.36,-1000.49,-30.27,1.95,5.64,2.41,-1.04,
05/25/2025,21:15:49.38,-997.07,-16.60,-10.74,3.41,-0.27,-0.55,
05/25/2025,21:15:49.41,-1000.00,-16.60,-11.23,3.69,1.19,-0.37,
05/25/2025,21:15:49.43,-1000.49,-34.18,-14.16,-1.10,3.14,-1.65,
05/25/2025,21:15:49.45,-993.65,-33.20,-8.30,0.82,2.56,-1.16,
05/25/2025,21:15:49.47,-1001.95,-26.86,-15.14,2.07,-1.68,-0.79,
05/25/2025,21:15:49.49,-1011.23,-27.83,-16.60,1.25,2.04,0.88,
05/25/2025,21:15:49.53,-1000.98,-22.95,-17.09,1.28,1.10,-3.96,
05/25/2025,21:15:49.55,-996.58,-29.79,-3.91,4.21,-2.87,-2.59,
05/25/2025,21:15:49.57,-996.58,-26.37,0.00,3.48,-2.74,0.12,
05/25/2025,21:15:49.59,-993.16,-20.51,9.77,3.14,-2.13,-2.47,
05/25/2025,21:15:49.61,-997.07,-14.16,0.49,1.04,1.37,-1.04,
05/25/2025,21:15:49.63,-1000.00,-22.95,-4.88,2.59,1.46,0.55,
05/25/2025,21:15:49.66,-1004.39,-21.48,-4.39,1.89,2.16,-0.55,
05/25/2025,21:15:49.68,-992.68,-31.74,0.00,1.34,3.81,-0.34,
05/25/2025,21:15:49.70,-1006.35,-20.02,7.81,2.38,4.42,-1.01,
05/25/2025,21:15:49.72,-1004.88,-34.18,7.81,0.79,1.80,-1.07,
05/25/2025,21:15:49.74,-996.58,-21.48,-5.37,2.41,1.46,-0.70,
05/25/2025,21:15:49.76,-996.58,-17.58,-4.88,3.29,2.77,-0.03,
05/25/2025,21:15:49.78,-1005.86,-36.13,-6.35,3.38,0.24,-1.10,
05/25/2025,21:15:49.80,-994.14,-25.39,-8.30,-0.34,1.71,0.88,
05/25/2025,21:15:49.82,-998.54,-33.20,-20.02,2.47,3.72,-0.34,
05/25/2025,21:15:49.84,-1006.84,-21.48,-9.28,1.74,3.35,-1.86,
05/25/2025,21:15:49.86,-998.05,-28.32,-12.70,1.01,2.35,-0.67,
05/25/2025,21:15:49.88,-991.21,-26.86,1.46,1.40,-0.30,-2.59,
05/25/2025,21:15:49.90,-1005.37,-16.11,-12.21,0.91,2.74,4.15,
05/25/2025,21:15:49.92,-1014.16,-26.86,-13.67,4.30,0.49,-2.32,
05/25/2025,21:15:49.94,-1004.88,-21.97,-11.23,1.52,2.04,1.22,
05/25/2025,21:15:49.96,-997.56,-27.83,3.91,3.41,2.20,-2.16,
05/25/2025,21:15:49.98,-1000.98,-20.02,-4.88,1.74,2.10,-3.32,
05/25/2025,21:15:50.00,-999.51,-24.41,2.44,1.16,2.47,-0.85,
05/25/2025,21:15:50.06,-1005.86,-26.86,-4.39,1.49,-0.12,0.58,
05/25/2025,21:15:50.08,-1001.46,-30.27,0.00,2.59,-0.37,-0.73,
05/25/2025,21:15:50.10,-1001.46,-39.55,-2.44,0.64,-0.58,0.03,
05/25/2025,21:15:50.12,-1007.81,-23.44,-3.91,3.57,1.19,1.28,
05/25/2025,21:15:50.14,-1005.86,-32.23,-5.86,2.38,3.26,0.03,
05/25/2025,21:15:50.16,-1005.86,-28.32,-8.79,4.05,2.35,-1.22,
05/25/2025,21:15:50.18,-1013.18,-27.34,0.00,0.15,1.83,-0.40,
05/25/2025,21:15:50.20,-995.12,-15.62,-6.35,2.32,2.16,0.49,
05/25/2025,21:15:50.22,-999.02,-29.30,3.42,2.23,0.95,0.58,
05/25/2025,21:15:50.24,-996.58,-23.44,-6.84,0.67,0.40,-0.88,
05/25/2025,21:15:50.27,-1004.39,-32.71,4.88,1.10,1.22,1.40,
05/25/2025,21:15:50.29,-1008.30,-19.04,-1.95,0.98,3.20,-1.68,
05/25/2025,21:15:50.31,-1004.88,-27.34,1.95,0.24,0.46,1.40,
05/25/2025,21:15:50.33,-1005.37,-24.90,5.37,1.49,0.76,-0.49,
05/25/2025,21:15:50.35,-986.82,-30.27,6.35,2.04,1.83,-1.19,
05/25/2025,21:15:50.37,-1002.44,-20.02,-5.86,0.95,2.20,-0.40,
05/25/2025,21:15:50.39,-1012.70,-30.27,-4.39,0.30,2.16,0.91,
05/25/2025,21:15:50.41,-1004.88,-22.46,-8.30,1.31,3.57,1.52,
05/25/2025,21:15:50.43,-1004.88,-34.67,-5.86,0.98,4.88,2.01,
05/25/2025,21:15:50.45,-1002.93,-23.44,-3.42,1.46,2.74,1.01,
05/25/2025,21:15:50.47,-1008.30,-34.67,-6.84,1.95,0.91,1.19,
05/25/2025,21:15:50.49,-989.26,-26.37,-5.37,0.88,0.91,-1.59,
05/25/2025,21:15:50.51,-997.07,-29.30,-6.84,2.87,3.23,0.34,
05/25/2025,21:15:50.56,-1006.35,-25.39,-4.88,1.71,2.56,1.74,
05/25/2025,21:15:50.58,-993.16,-15.62,-8.30,-0.09,2.41,-3.81,
05/25/2025,21:15:50.60,-1000.49,-33.20,-2.93,2.84,1.34,-2.71,
05/25/2025,21:15:50.62,-993.65,-35.16,0.00,4.24,-0.30,-0.70,
05/25/2025,21:15:50.64,-1000.98,-39.55,-6.35,4.91,-0.98,1.07,
05/25/2025,21:15:50.66,-986.82,-34.18,-8.79,1.98,-0.58,1.04,
05/25/2025,21:15:50.68,-1000.00,-24.90,12.21,3.17,0.37,-0.82,
05/25/2025,21:15:50.70,-992.19,-21.48,-5.37,1.46,2.16,3.48,
05/25/2025,21:15:50.72,-998.54,-21.97,-0.98,2.04,1.34,0.49,
05/25/2025,21:15:50.74,-1006.84,-25.39,-11.23,2.26,0.79,-2.01,
05/25/2025,21:15:50.76,-1000.49,-26.37,8.30,2.13,0.67,-0.06,
05/25/2025,21:15:50.78,-988.77,-33.20,0.49,1.16,1.04,1.13,
05/25/2025,21:15:50.80,-986.33,-37.60,-24.90,0.73,4.09,-3.45,
05/25/2025,21:15:50.82,-1001.95,-28.32,-18.55,2.20,3.02,-2.07,
05/25/2025,21:15:50.84,-990.23,-27.83,-18.07,1.46,-0.76,-0.82,
05/25/2025,21:15:50.86,-997.07,-22.95,-0.49,2.01,1.40,0.76,
05/25/2025,21:15:50.88,-1000.49,-27.34,6.35,0.82,2.29,-0.24,
05/25/2025,21:15:50.90,-993.65,-31.25,2.44,0.27,1.86,0.12,
05/25/2025,21:15:50.92,-1005.37,-18.55,1.95,-0.24,3.72,-0.34,
05/25/2025,21:15:50.94,-1004.88,-24.90,16.60,1.19,1.43,-0.09,
05/25/2025,21:15:50.96,-999.02,-23.44,1.46,3.38,0.85,-1.92,
05/25/2025,21:15:50.98,-1003.91,-35.64,-4.88,2.26,3.05,-2.04,
05/25/2025,21:15:51.00,-1005.86,-38.57,-13.67,0.24,1.22,2.20,
05/25/2025,21:15:51.02,-995.12,-30.76,5.37,2.13,2.29,1.59,
05/25/2025,21:15:51.07,-1000.98,-32.23,-5.86,1.16,3.08,0.24,
05/25/2025,21:15:51.09,-1002.93,-18.55,-7.32,1.16,3.96,1.31,
05/25/2025,21:15:51.11,-1002.44,-20.51,-10.25,1.13,2.01,0.64,
05/25/2025,21:15:51.13,-1008.79,-26.37,8.79,2.44,1.65,0.30,
05/25/2025,21:15:51.15,-1004.88,-25.39,9.28,1.98,3.05,2.84,
05/25/2025,21:15:51.17,-1000.49,-35.16,3.42,2.71,-0.24,-0.12,
05/25/2025,21:15:51.19,-1003.91,-28.81,-4.88,1.77,1.52,-2.07,
05/25/2025,21:15:51.21,-1005.37,-29.30,-8.79,3.32,2.53,-0.37,
05/25/2025,21:15:51.23,-1015.14,-31.74,-7.32,2.20,0.91,0.27,
05/25/2025,21:15:51.25,-998.54,-34.67,-4.39,0.88,3.11,-1.22,
05/25/2025,21:15:51.27,-1008.79,-20.51,7.32,1.77,3.75,0.55,
05/25/2025,21:15:51.29,-999.51,-30.76,-0.98,-1.19,-0.73,0.00,
05/25/2025,21:15:51.31,-990.72,-17.09,-3.42,1.31,2.32,-2.62,
05/25/2025,21:15:51.33,-1005.86,-34.67,-12.21,-0.24,2.13,-2.59,
05/25/2025,21:15:51.35,-1002.93,-34.67,-11.72,2.87,1.59,0.09,
05/25/2025,21:15:51.37,-995.12,-35.64,-3.42,2.62,-0.76,1.71,
05/25/2025,21:15:51.39,-999.02,-30.76,-1.46,0.64,1.95,-0.46,
05/25/2025,21:15:51.41,-989.75,-21.97,5.86,0.76,1.95,-1.25,
05/25/2025,21:15:51.43,-1006.84,-32.23,-4.39,3.51,1.31,1.92,
05/25/2025,21:15:51.45,-1003.42,-22.95,-2.93,3.57,0.24,-3.54,
05/25/2025,21:15:51.47,-1002.93,-14.16,1.46,0.98,3.72,1.92,
05/25/2025,21:15:51.49,-993.65,-30.76,-14.16,-0.15,2.93,-0.91,
05/25/2025,21:15:51.51,-1004.88,-23.93,0.98,1.49,3.90,-0.15,
05/25/2025,21:15:51.53,-992.68,-42.97,10.25,1.43,1.59,-2.26,
05/25/2025,21:15:51.58,-1003.91,-27.83,-1.95,0.79,0.76,1.43,
05/25/2025,21:15:51.60,-1022.95,-25.88,-1.95,2.29,1.68,-1.46,
05/25/2025,21:15:51.62,-1010.74,-21.00,5.37,1.74,2.20,0.15,
05/25/2025,21:15:51.64,-1009.77,-34.18,-5.86,1.37,2.20,1.71,
05/25/2025,21:15:51.66,-997.56,-27.83,-1.95,1.92,0.88,0.55,
05/25/2025,21:15:51.68,-998.54,-25.88,1.95,3.32,1.28,-2.04,
05/25/2025,21:15:51.70,-1006.35,-19.53,-6.84,3.02,1.83,-1.89,
05/25/2025,21:15:51.72,-985.35,-17.58,-2.44,2.80,3.48,-2.26,
05/25/2025,21:15:51.74,-1003.91,-30.76,6.35,-1.13,2.47,-3.32,
05/25/2025,21:15:51.76,-1000.00,-26.86,9.77,1.89,1.34,-0.91,
05/25/2025,21:15:51.78,-996.58,-34.67,8.30,1.89,2.50,-0.09,
05/25/2025,21:15:51.80,-1013.67,-24.90,6.35,1.19,1.28,-3.08,
05/25/2025,21:15:51.82,-997.07,-23.93,-0.49,1.49,1.68,-0.98,
05/25/2025,21:15:51.84,-993.65,-25.88,6.84,0.95,0.15,0.43,
05/25/2025,21:15:51.86,-999.51,-33.20,-1.46,4.09,-1.65,-1.62,
05/25/2025,21:15:51.88,-1011.23,-32.23,-0.49,8.17,-9.70,1.07,
05/25/2025,21:15:51.90,-1002.44,-25.88,9.77,-11.62,-11.16,-3.29,
05/25/2025,21:15:51.92,-993.16,-30.27,20.51,7.68,-4.15,-0.12,
05/25/2025,21:15:51.94,-1005.37,-24.41,18.55,3.81,1.13,-0.85,
05/25/2025,21:15:51.96,-1004.39,-38.09,14.65,0.43,3.20,1.92,
05/25/2025,21:15:51.98,-1000.49,-30.27,0.49,1.04,4.51,-0.06,
05/25/2025,21:15:52.00,-993.65,-24.41,17.09,3.05,3.11,1.10,
05/25/2025,21:15:52.02,-1000.98,-15.14,12.21,1.31,0.95,1.40,
05/25/2025,21:15:52.04,-1012.70,-22.95,16.60,0.46,1.16,-2.26,
05/25/2025,21:15:52.09,-996.09,-17.09,12.21,-1.25,0.82,-1.80,
05/25/2025,21:15:52.11,-1001.46,-28.32,17.58,-0.88,2.84,-1.52,
05/25/2025,21:15:52.13,-1010.74,-24.90,21.00,3.72,0.15,0.61,
05/25/2025,21:15:52.15,-1000.98,-32.71,4.88,-3.11,11.62,-4.66,
05/25/2025,21:15:52.17,-995.61,-26.37,4.39,-5.00,8.02,-2.32,
05/25/2025,21:15:52.19,-989.75,-27.83,0.98,-3.54,5.06,1.43,
05/25/2025,21:15:52.21,-1005.86,-26.37,-1.46,-0.15,3.20,-0.70,
05/25/2025,21:15:52.23,-995.12,-29.79,1.46,-3.96,5.40,-4.91,
05/25/2025,21:15:52.25,-1000.49,-41.99,-0.98,0.18,2.16,0.79,
05/25/2025,21:15:52.27,-994.63,-22.95,-12.70,0.85,-0.76,-1.19,
05/25/2025,21:15:52.29,-996.09,-28.32,-13.18,-0.27,3.66,2.32,
05/25/2025,21:15:52.31,-1009.77,-16.11,-6.35,-0.95,6.59,0.43,
05/25/2025,21:15:52.33,-1000.00,-14.65,9.77,-0.98,4.66,-0.49,
05/25/2025,21:15:52.35,-998.05,-20.51,-6.35,2.13,1.83,0.40,
05/25/2025,21:15:52.37,-1005.86,-27.34,0.00,0.82,3.93,0.34,
05/25/2025,21:15:52.39,-974.61,-12.21,-6.84,2.53,1.95,-0.12,
05/25/2025,21:15:52.41,-994.14,-29.30,0.49,0.09,3.20,-3.26,
05/25/2025,21:15:52.43,-1003.42,-26.86,-2.44,0.09,1.62,-1.28,
05/25/2025,21:15:52.45,-995.12,-28.81,0.49,1.52,0.46,-3.11,
05/25/2025,21:15:52.47,-1009.28,-25.39,0.00,2.62,2.23,-0.43,
05/25/2025,21:15:52.49,-995.61,-25.88,-8.30,2.38,-0.30,1.74,
05/25/2025,21:15:52.51,-993.16,-32.71,4.88,2.96,2.01,1.37,
05/25/2025,21:15:52.53,-1012.70,-26.37,-7.32,0.82,1.83,1.52,
05/25/2025,21:15:52.55,-1008.30,-35.16,0.98,0.58,2.07,2.04,
05/25/2025,21:15:52.61,-1001.95,-26.86,-14.65,1.07,0.67,0.82,
05/25/2025,21:15:52.63,-991.70,-30.76,-6.35,0.46,-0.52,-1.28,
05/25/2025,21:15:52.65,-1000.49,-27.34,-7.81,1.43,-0.46,-1.40,
05/25/2025,21:15:52.67,-994.14,-29.79,0.00,0.15,3.41,0.88,
05/25/2025,21:15:52.69,-998.05,-32.71,-8.30,0.85,3.87,0.95,
05/25/2025,21:15:52.71,-1005.37,-29.79,-6.35,-0.73,0.88,-2.84,
05/25/2025,21:15:52.73,-1004.39,-27.83,0.98,15.46,4.70,-5.27,
05/25/2025,21:15:52.75,-992.19,-19.04,9.77,4.24,1.31,-1.59,
05/25/2025,21:15:52.77,-994.14,-23.93,-5.37,-0.46,2.23,-1.49,
05/25/2025,21:15:52.79,-1000.98,-29.30,4.88,1.01,0.91,0.79,
05/25/2025,21:15:52.81,-1004.88,-23.44,-9.77,1.04,2.04,-1.10,
05/25/2025,21:15:52.83,-1006.35,-38.57,-5.37,1.86,0.88,-1.01,
05/25/2025,21:15:52.85,-993.16,-20.51,-7.81,-0.88,3.23,2.10,
05/25/2025,21:15:52.87,-998.54,-21.00,-2.44,0.18,0.85,-0.58,
05/25/2025,21:15:52.89,-999.02,-18.55,-18.07,1.13,2.74,1.22,
05/25/2025,21:15:52.91,-1008.30,-22.95,0.98,1.83,4.02,-0.40,
05/25/2025,21:15:52.93,-988.28,-31.74,-1.46,3.05,2.87,-1.74,
05/25/2025,21:15:52.95,-1009.77,-35.16,5.86,0.98,1.86,0.21,
05/25/2025,21:15:52.97,-992.68,-29.79,-4.88,1.68,0.49,-1.77,
05/25/2025,21:15:52.99,-999.02,-32.23,-16.60,2.84,3.41,-1.95,
05/25/2025,21:15:53.01,-1010.74,-32.71,2.44,1.77,1.37,2.01,
05/25/2025,21:15:53.03,-1002.44,-20.51,21.97,0.76,4.54,0.12,
05/25/2025,21:15:53.05,-1005.86,-22.46,-1.95,-0.06,3.26,0.37,
05/25/2025,21:15:53.07,-996.58,-29.30,-12.70,2.01,1.40,-2.13,
