rtcDate,rtcTime,aX,aY,aZ,gX,gY,gZ,
05/25/2025,21:17:48.13,-10.25,984.86,10.74,1.37,2.56,-1.83,
05/25/2025,21:17:48.20,-21.00,979.98,0.98,2.32,1.25,-1.68,
05/25/2025,21:17:48.22,-16.11,970.21,2.93,1.71,1.77,-2.04,
05/25/2025,21:17:48.24,-21.48,980.47,-1.95,1.25,1.46,-0.95,
05/25/2025,21:17:48.26,-19.53,984.86,0.98,1.01,3.05,-1.52,
05/25/2025,21:17:48.28,-16.60,971.68,-11.23,0.06,2.50,2.07,
05/25/2025,21:17:48.30,-12.70,979.98,-7.32,3.63,1.89,-2.13,
05/25/2025,21:17:48.32,-10.74,981.45,3.42,2.77,2.80,-1.10,
05/25/2025,21:17:48.34,-12.21,981.93,3.42,3.48,-0.40,0.34,
05/25/2025,21:17:48.36,-22.46,981.45,1.46,0.91,1.80,0.37,
05/25/2025,21:17:48.38,-8.79,982.42,4.39,2.77,0.70,-0.91,
05/25/2025,21:17:48.40,-9.28,967.29,4.39,0.73,-0.70,-1.92,
05/25/2025,21:17:48.42,-7.32,982.91,3.42,3.75,-0.15,-0.03,
05/25/2025,21:17:48.44,-10.25,972.17,2.93,1.98,1.86,0.82,
05/25/2025,21:17:48.46,-5.37,987.79,3.42,1.52,1.40,3.93,
05/25/2025,21:17:48.48,-12.21,980.47,-7.81,1.40,1.98,-1.01,
05/25/2025,21:17:48.50,-19.53,972.17,-5.86,2.23,-0.30,1.74,
05/25/2025,21:17:48.52,-24.90,963.38,14.65,1.37,0.70,-0.61,
05/25/2025,21:17:48.54,-12.70,982.42,-0.98,0.76,0.52,1.59,
05/25/2025,21:17:48.56,-10.25,972.17,1.95,0.88,2.59,-0.79,
05/25/2025,21:17:48.58,-10.74,988.28,-0.98,1.77,1.89,-0.73,
05/25/2025,21:17:48.60,-15.14,980.96,-4.88,-0.76,2.90,-2.32,
05/25/2025,21:17:48.62,-22.95,970.21,3.91,1.43,2.23,-0.98,
05/25/2025,21:17:48.64,-8.79,979.00,-6.84,4.42,3.45,2.56,
05/25/2025,21:17:48.69,-16.11,978.52,0.98,2.93,2.62,-1.34,
05/25/2025,21:17:48.71,-15.62,972.66,-4.88,0.27,1.37,-2.10,
05/25/2025,21:17:48.73,-11.23,983.89,0.98,2.44,0.73,0.09,
05/25/2025,21:17:48.75,-11.72,991.70,0.49,1.43,1.46,1.31,
05/25/2025,21:17:48.77,-21.00,986.82,-11.72,2.16,1.74,2.07,
05/25/2025,21:17:48.79,-13.18,978.52,-1.46,4.70,1.31,-0.91,
05/25/2025,21:17:48.81,-17.09,967.77,-5.37,0.95,3.08,-1.55,
05/25/2025,21:17:48.83,-11.23,968.26,-5.37,2.68,1.16,-2.84,
05/25/2025,21:17:48.85,-4.39,982.91,-3.42,3.14,0.55,2.65,
05/25/2025,21:17:48.87,-13.18,977.05,2.93,-0.58,1.07,-2.93,
05/25/2025,21:17:48.89,-26.37,978.03,-2.93,1.46,2.53,-1.01,
05/25/2025,21:17:48.91,-12.70,967.77,3.42,0.67,2.20,1.25,
05/25/2025,21:17:48.93,-16.11,980.47,-0.49,0.79,2.41,-2.74,
05/25/2025,21:17:48.95,-16.60,985.35,-6.84,1.49,3.41,0.06,
05/25/2025,21:17:48.97,-17.09,976.07,4.39,2.29,2.80,-2.62,
05/25/2025,21:17:48.99,-15.14,970.21,4.88,2.74,0.09,-0.24,
05/25/2025,21:17:49.01,-9.77,989.26,1.95,0.82,1.68,0.06,
05/25/2025,21:17:49.03,-16.60,986.33,0.49,1.22,1.37,-2.20,
05/25/2025,21:17:49.05,-11.72,979.00,12.21,-1.43,4.05,-1.74,
05/25/2025,21:17:49.07,-13.18,978.03,11.23,2.77,1.52,0.49,
05/25/2025,21:17:49.09,-11.72,975.59,-12.70,0.40,3.11,-0.18,
05/25/2025,21:17:49.11,-21.48,980.47,0.98,2.10,1.83,-1.95,
05/25/2025,21:17:49.13,-13.18,987.79,5.37,1.52,1.55,-0.30,
05/25/2025,21:17:49.16,-17.58,974.12,-0.98,0.58,1.46,0.21,
05/25/2025,21:17:49.20,-19.04,973.14,7.81,0.67,1.89,-2.32,
05/25/2025,21:17:49.22,-4.39,986.33,12.70,2.65,1.22,1.22,
05/25/2025,21:17:49.24,-22.95,984.86,6.84,3.08,2.13,-2.38,
05/25/2025,21:17:49.26,-19.53,980.47,-2.44,0.67,3.81,-3.78,
05/25/2025,21:17:49.28,-18.55,982.91,2.44,1.62,1.25,-0.40,
05/25/2025,21:17:49.30,-26.86,971.19,-3.42,3.38,3.02,1.77,
05/25/2025,21:17:49.32,-19.04,983.40,-2.93,1.01,3.38,-2.56,
05/25/2025,21:17:49.34,-15.62,985.35,-11.72,-0.12,5.03,-3.26,
05/25/2025,21:17:49.37,-28.81,974.61,4.39,3.02,2.68,-1.77,
05/25/2025,21:17:49.39,-10.74,976.07,0.00,1.01,4.51,-0.09,
05/25/2025,21:17:49.41,-12.21,979.00,1.46,3.05,2.10,1.22,
05/25/2025,21:17:49.43,-13.67,975.10,-6.35,2.16,2.53,-0.46,
05/25/2025,21:17:49.45,-17.09,986.33,2.93,1.46,0.15,0.49,
05/25/2025,21:17:49.47,-15.14,977.54,-6.35,1.40,1.34,-1.49,
05/25/2025,21:17:49.49,-25.39,977.05,-0.49,0.61,2.93,-2.41,
05/25/2025,21:17:49.51,-19.53,976.07,-8.30,1.86,1.71,0.15,
05/25/2025,21:17:49.53,-25.39,969.73,-2.93,2.90,1.22,1.31,
05/25/2025,21:17:49.55,-7.81,982.42,2.93,0.12,1.25,-3.23,
05/25/2025,21:17:49.57,-20.02,968.75,2.44,2.68,2.44,1.52,
05/25/2025,21:17:49.59,-14.16,981.45,-3.91,1.49,0.91,-2.38,
05/25/2025,21:17:49.61,-12.70,974.12,6.35,0.91,2.80,-0.24,
05/25/2025,21:17:49.63,-9.28,974.61,-18.55,0.79,4.82,0.40,
05/25/2025,21:17:49.65,-12.21,970.21,2.44,1.55,2.44,-1.62,
05/25/2025,21:17:49.67,-16.60,983.89,-0.49,2.53,3.87,0.12,
05/25/2025,21:17:49.72,-6.84,976.56,-1.46,-0.40,4.79,-1.19,
05/25/2025,21:17:49.74,-23.44,975.59,-0.98,-0.37,0.82,-2.23,
05/25/2025,21:17:49.76,-20.02,990.23,0.98,0.09,2.71,0.30,
05/25/2025,21:17:49.78,-16.11,977.54,-1.95,1.74,1.10,-2.13,
05/25/2025,21:17:49.80,-11.23,974.61,-4.88,1.19,3.29,-1.89,
05/25/2025,21:17:49.82,-18.07,987.79,7.81,3.17,0.12,0.82,
05/25/2025,21:17:49.84,-24.41,971.19,1.46,0.95,2.44,-3.23,
05/25/2025,21:17:49.86,-10.74,979.49,3.91,2.65,1.22,-1.07,
05/25/2025,21:17:49.88,-12.70,984.38,1.95,1.37,1.40,1.37,
05/25/2025,21:17:49.90,-12.21,986.33,-4.88,0.18,2.53,-3.08,
05/25/2025,21:17:49.92,-3.91,978.03,-2.44,0.24,1.37,-1.25,
05/25/2025,21:17:49.94,-11.72,982.42,-3.42,0.06,1.68,-1.28,
05/25/2025,21:17:49.96,-12.21,991.21,-8.79,-0.27,-0.15,1.04,
05/25/2025,21:17:49.98,-9.77,971.19,2.93,1.65,2.35,-1.86,
05/25/2025,21:17:50.00,-18.07,977.54,6.84,0.88,1.01,0.30,
05/25/2025,21:17:50.02,-25.88,970.21,-3.91,2.23,2.65,-0.40,
05/25/2025,21:17:50.04,-8.79,976.07,7.32,1.68,3.14,1.28,
05/25/2025,21:17:50.06,-24.41,982.91,3.42,1.98,1.62,0.79,
05/25/2025,21:17:50.08,-11.72,981.93,5.86,2.65,2.50,-1.28,
05/25/2025,21:17:50.10,-10.25,984.38,0.49,0.52,2.80,-2.10,
05/25/2025,21:17:50.12,-7.32,977.05,-5.86,2.04,1.34,-3.08,
05/25/2025,21:17:50.14,-18.07,983.89,-6.84,1.40,3.11,-2.47,
05/25/2025,21:17:50.16,-21.00,966.80,1.95,0.12,2.26,-3.45,
05/25/2025,21:17:50.18,-15.14,976.07,-7.81,2.96,0.98,-1.68,
05/25/2025,21:17:50.23,-27.83,972.66,-2.93,1.10,2.68,-0.76,
05/25/2025,21:17:50.25,-10.74,985.35,0.98,0.88,1.59,0.06,
05/25/2025,21:17:50.27,-26.86,967.29,10.25,1.52,1.89,1.01,
05/25/2025,21:17:50.29,-14.16,978.52,-2.93,2.56,1.22,-2.07,
05/25/2025,21:17:50.31,-13.67,985.35,-4.88,1.04,2.90,-1.07,
05/25/2025,21:17:50.33,-18.55,979.98,-12.70,1.89,1.98,-0.06,
05/25/2025,21:17:50.35,-20.02,970.70,0.00,1.19,0.98,-1.40,
05/25/2025,21:17:50.37,-13.67,974.61,-8.30,1.22,2.65,-1.62,
05/25/2025,21:17:50.39,-23.44,974.61,-2.93,0.18,2.96,-1.37,
05/25/2025,21:17:50.41,-8.79,975.59,-2.44,2.29,2.10,-4.24,
05/25/2025,21:17:50.43,-19.53,975.10,-0.49,-0.58,0.55,1.22,
05/25/2025,21:17:50.45,-31.74,981.93,6.35,4.02,0.06,0.76,
05/25/2025,21:17:50.47,-11.72,975.59,-9.28,0.15,2.38,-2.04,
05/25/2025,21:17:50.49,-27.83,970.70,-9.77,1.95,1.89,0.34,
05/25/2025,21:17:50.51,-15.14,986.82,5.86,1.28,2.44,-1.40,
05/25/2025,21:17:50.53,-17.58,966.80,2.93,1.07,2.53,-3.14,
05/25/2025,21:17:50.55,-18.55,980.47,10.74,1.52,1.01,-2.29,
05/25/2025,21:17:50.57,-3.42,984.38,6.84,3.84,0.34,1.43,
05/25/2025,21:17:50.59,-15.62,985.35,-14.65,1.98,0.55,0.27,
05/25/2025,21:17:50.61,-10.74,982.91,0.98,0.58,3.45,0.82,
05/25/2025,21:17:50.63,-27.34,981.93,-0.98,1.52,0.06,-1.25,
05/25/2025,21:17:50.65,-3.42,967.29,1.46,2.07,1.52,1.80,
05/25/2025,21:17:50.67,-21.48,984.86,7.81,1.74,2.41,0.09,
05/25/2025,21:17:50.69,-15.62,979.00,6.35,1.52,0.27,0.46,
05/25/2025,21:17:50.74,-15.14,976.56,5.37,1.65,1.55,0.18,
05/25/2025,21:17:50.76,-16.60,987.79,2.93,0.34,1.98,-0.09,
05/25/2025,21:17:50.78,-9.77,974.61,-3.91,2.07,2.04,0.49,
05/25/2025,21:17:50.80,-19.53,982.91,-4.39,0.88,1.62,-1.28,
05/25/2025,21:17:50.82,-25.88,974.61,-0.49,2.13,1.59,0.73,
05/25/2025,21:17:50.84,-25.39,970.70,-1.95,1.46,2.04,-0.95,
05/25/2025,21:17:50.86,-12.70,972.17,1.95,2.68,1.34,-1.77,
05/25/2025,21:17:50.88,-21.48,979.98,8.30,2.10,1.89,2.53,
05/25/2025,21:17:50.90,-7.32,976.07,0.00,0.52,1.10,-0.21,
05/25/2025,21:17:50.92,-11.72,976.07,2.44,2.23,2.13,-2.50,
05/25/2025,21:17:50.94,-23.93,974.12,2.93,1.86,1.40,0.09,
05/25/2025,21:17:50.96,-10.25,970.21,-1.46,2.07,1.01,-1.62,
05/25/2025,21:17:50.98,-10.25,980.96,3.91,-0.64,-0.18,0.24,
05/25/2025,21:17:51.00,-15.14,968.26,-0.98,0.18,1.80,-1.22,
05/25/2025,21:17:51.02,-21.00,984.86,-5.86,2.20,2.53,-2.26,
05/25/2025,21:17:51.04,-11.23,982.91,-1.95,2.35,0.18,-3.45,
05/25/2025,21:17:51.06,-15.14,978.03,-1.46,1.89,-0.12,-0.58,
05/25/2025,21:17:51.08,-16.11,973.63,0.49,2.50,2.87,-0.37,
05/25/2025,21:17:51.10,-9.28,976.56,1.46,2.01,4.66,-1.98,
05/25/2025,21:17:51.12,-8.79,977.05,-4.39,1.10,1.74,-2.77,
05/25/2025,21:17:51.14,-21.48,977.54,4.88,-1.83,0.67,-1.77,
05/25/2025,21:17:51.16,-13.18,980.47,0.49,0.46,1.80,2.90,
05/25/2025,21:17:51.18,-13.67,980.96,5.86,0.58,2.35,3.08,
05/25/2025,21:17:51.20,-20.02,966.31,5.37,1.80,1.77,0.95,
05/25/2025,21:17:51.25,-16.60,980.96,-0.98,0.58,1.59,-1.25,
05/25/2025,21:17:51.27,-7.32,978.03,-2.44,2.74,0.76,0.70,
05/25/2025,21:17:51.29,-12.70,987.79,-5.37,2.10,-1.46,-0.06,
05/25/2025,21:17:51.31,-4.88,966.80,-3.91,2.01,4.94,-1.10,
05/25/2025,21:17:51.33,-12.70,975.59,3.42,2.10,2.90,0.91,
05/25/2025,21:17:51.35,-11.23,995.12,-0.49,0.40,3.05,0.91,
05/25/2025,21:17:51.37,-8.79,984.86,-5.37,-1.04,1.98,-0.46,
05/25/2025,21:17:51.39,-10.25,989.75,5.86,2.84,2.84,-3.02,
05/25/2025,21:17:51.41,-31.25,979.00,0.98,2.99,1.55,-1.28,
05/25/2025,21:17:51.43,0.00,980.47,-2.44,1.34,2.80,0.82,
05/25/2025,21:17:51.45,-12.70,979.98,3.42,0.88,2.93,0.73,
05/25/2025,21:17:51.47,-16.60,979.98,0.00,3.02,1.98,2.16,
05/25/2025,21:17:51.49,-13.67,987.79,-0.49,1.89,2.41,2.29,
05/25/2025,21:17:51.51,-19.04,983.40,-3.91,0.12,1.95,-1.80,
05/25/2025,21:17:51.53,-14.65,981.93,-6.84,3.75,-0.30,1.37,
05/25/2025,21:17:51.55,-13.67,973.63,-1.46,1.07,3.69,-1.74,
05/25/2025,21:17:51.57,-14.16,981.45,0.49,0.58,-0.03,0.79,
05/25/2025,21:17:51.59,-16.11,984.38,-4.39,2.93,1.59,-0.52,
05/25/2025,21:17:51.61,-30.76,983.89,-1.46,-0.46,2.68,-1.43,
05/25/2025,21:17:51.63,-29.30,976.07,11.72,1.04,2.99,0.79,
05/25/2025,21:17:51.65,-16.60,972.17,13.67,2.29,4.54,3.26,
05/25/2025,21:17:51.67,-19.53,983.40,2.93,1.65,1.04,0.37,
05/25/2025,21:17:51.69,-23.44,988.28,2.93,0.67,1.52,-1.89,
05/25/2025,21:17:51.71,-14.65,980.96,2.44,2.74,2.53,-1.46,
05/25/2025,21:17:51.76,-15.62,984.86,2.93,2.84,1.92,-1.16,
05/25/2025,21:17:51.78,-19.04,980.47,5.37,0.58,1.59,-2.47,
05/25/2025,21:17:51.80,-17.09,979.49,-5.37,0.27,2.74,0.67,
05/25/2025,21:17:51.82,-6.35,974.61,7.81,1.62,3.29,0.40,
05/25/2025,21:17:51.84,-11.23,988.28,-0.49,1.22,2.16,-0.70,
05/25/2025,21:17:51.86,-21.48,974.61,20.51,1.86,2.26,-1.86,
05/25/2025,21:17:51.88,-21.48,970.70,6.35,0.76,2.23,-1.40,
05/25/2025,21:17:51.90,-15.62,978.52,4.88,0.12,2.01,0.03,
05/25/2025,21:17:51.92,-23.44,984.38,-3.91,0.98,3.51,-1.49,
05/25/2025,21:17:51.94,-14.16,980.47,-8.30,5.09,1.52,-3.41,
05/25/2025,21:17:51.96,-21.00,968.26,12.21,0.12,2.10,2.41,
05/25/2025,21:17:51.98,-12.21,972.17,3.91,2.26,1.68,-0.70,
05/25/2025,21:17:52.00,-22.46,968.75,-5.37,2.38,1.86,0.27,
05/25/2025,21:17:52.02,-22.95,977.54,-3.91,1.37,0.67,-2.32,
05/25/2025,21:17:52.04,-10.25,977.54,0.00,2.44,1.89,0.37,
05/25/2025,21:17:52.06,-20.02,975.59,-5.37,2.74,1.34,-3.23,
05/25/2025,21:17:52.08,-13.67,981.45,-1.46,3.90,0.34,-2.74,
05/25/2025,21:17:52.11,-1.46,976.07,0.98,0.95,2.80,-0.27,
05/25/2025,21:17:52.13,-5.37,983.89,5.86,2.87,0.46,-3.11,
05/25/2025,21:17:52.15,-13.67,979.98,-8.79,2.93,0.00,-1.49,
05/25/2025,21:17:52.17,-12.70,992.68,13.67,-0.64,1.62,1.22,
05/25/2025,21:17:52.19,-9.28,983.40,5.86,0.98,3.17,-2.01,
05/25/2025,21:17:52.21,-19.04,988.28,-1.46,2.62,2.32,-0.34,
05/25/2025,21:17:52.23,-11.72,973.63,-13.18,1.13,1.77,-3.72,
05/25/2025,21:17:52.27,-14.65,993.65,-0.98,1.92,2.23,0.37,
05/25/2025,21:17:52.30,-11.72,986.33,3.42,1.22,0.18,-0.34,
05/25/2025,21:17:52.32,-15.14,965.82,-10.25,-1.10,3.41,0.79,
05/25/2025,21:17:52.34,-13.18,988.77,0.00,1.49,2.29,-2.13,
05/25/2025,21:17:52.36,-13.18,976.56,1.95,1.10,1.10,-2.62,
05/25/2025,21:17:52.38,-18.07,988.77,-2.44,2.41,2.74,-2.26,
05/25/2025,21:17:52.40,-13.67,983.40,-2.93,0.34,0.95,-1.28,
05/25/2025,21:17:52.42,-12.70,979.00,-1.95,2.26,-0.21,-2.26,
05/25/2025,21:17:52.44,-12.21,980.96,2.93,1.65,1.83,-2.04,
05/25/2025,21:17:52.46,-6.35,975.10,-5.37,2.90,0.61,-0.76,
05/25/2025,21:17:52.48,-17.09,973.63,6.35,3.57,1.83,1.46,
05/25/2025,21:17:52.50,-13.18,977.54,-1.46,1.52,0.34,0.43,
05/25/2025,21:17:52.52,-10.74,987.30,4.39,2.38,1.95,-0.49,
05/25/2025,21:17:52.54,-23.44,987.79,0.49,2.07,-0.34,0.24,
05/25/2025,21:17:52.56,-17.58,991.21,0.00,0.58,2.01,-1.98,
05/25/2025,21:17:52.58,-13.18,974.12,0.98,-0.88,3.78,-3.51,
05/25/2025,21:17:52.60,-16.11,975.59,4.88,1.62,1.92,-0.30,
05/25/2025,21:17:52.62,-10.25,977.54,-0.49,0.85,1.43,0.61,
05/25/2025,21:17:52.64,-16.60,971.68,0.49,2.62,0.52,-1.04,
05/25/2025,21:17:52.66,-18.55,975.59,7.81,1.92,3.81,0.24,
05/25/2025,21:17:52.68,-2.44,982.91,0.98,2.29,2.59,-2.65,
05/25/2025,21:17:52.70,-11.23,968.75,-2.93,0.98,0.67,-3.32,
05/25/2025,21:17:52.72,-16.11,977.05,3.91,0.37,3.35,-1.74,
05/25/2025,21:17:52.74,-20.51,986.33,13.18,1.43,1.49,-1.71,
05/25/2025,21:17:52.79,-14.65,987.79,-36.13,1.04,2.96,-0.79,
05/25/2025,21:17:52.81,4.88,958.01,17.58,0.49,2.65,-2.44,
05/25/2025,21:17:52.83,-21.48,985.84,8.30,1.62,-0.58,1.49,
05/25/2025,21:17:52.85,-21.00,967.77,0.00,1.34,0.06,-1.86,
05/25/2025,21:17:52.87,-27.34,979.00,2.44,-0.09,4.15,1.98,
05/25/2025,21:17:52.89,-51.76,986.82,-46.88,1.22,2.29,1.07,
05/25/2025,21:17:52.91,-5.86,990.72,-23.93,4.05,0.27,-1.34,
05/25/2025,21:17:52.93,-8.79,975.59,-0.49,2.47,3.23,-2.59,
05/25/2025,21:17:52.95,-16.11,981.45,13.67,2.65,0.03,-3.32,
05/25/2025,21:17:52.97,-11.23,979.98,10.25,4.21,2.56,1.92,
05/25/2025,21:17:52.99,-7.81,985.84,-4.39,0.37,1.31,2.62,
05/25/2025,21:17:53.01,-18.07,980.96,2.44,1.80,1.46,0.12,
05/25/2025,21:17:53.03,-15.62,981.45,-4.39,3.57,2.32,1.31,
05/25/2025,21:17:53.05,-16.11,980.96,4.39,1.68,0.91,-0.61,
05/25/2025,21:17:53.07,-18.07,963.38,-1.46,2.56,0.00,-1.83,
05/25/2025,21:17:53.09,-22.46,984.38,-7.32,2.56,0.49,0.40,
05/25/2025,21:17:53.11,-6.84,974.12,-0.49,1.65,2.90,-0.49,
05/25/2025,21:17:53.13,-11.23,979.00,0.49,-1.01,1.77,0.18,
05/25/2025,21:17:53.15,-27.34,981.45,0.49,1.37,0.34,-0.82,
05/25/2025,21:17:53.17,-10.25,961.43,4.39,-0.03,3.72,1.83,
05/25/2025,21:17:53.19,-23.93,982.42,-4.39,1.37,2.41,-1.31,
05/25/2025,21:17:53.21,-26.37,972.17,-4.88,2.62,3.11,1.28,
05/25/2025,21:17:53.23,-13.18,974.61,-1.95,3.08,1.16,-1.13,
05/25/2025,21:17:53.25,-17.58,970.21,14.65,1.89,2.99,-1.83,
05/25/2025,21:17:53.30,-17.09,977.05,1.46,2.10,0.61,-1.71,
05/25/2025,21:17:53.32,-21.00,987.30,10.25,1.59,2.84,-1.13,
05/25/2025,21:17:53.34,-17.09,974.12,9.28,1.77,3.54,0.03,
05/25/2025,21:17:53.36,-18.55,975.10,6.35,1.52,0.30,-4.15,
05/25/2025,21:17:53.38,-12.70,977.05,9.28,1.52,0.95,-1.19,
05/25/2025,21:17:53.40,-10.74,979.98,2.44,3.41,1.95,-0.43,
05/25/2025,21:17:53.42,-22.95,986.82,3.91,1.25,2.62,-2.04,
05/25/2025,21:17:53.44,-24.41,976.56,-5.37,2.62,2.90,0.03,
05/25/2025,21:17:53.46,-22.95,982.91,-6.35,0.95,3.60,-0.73,
05/25/2025,21:17:53.48,-10.25,975.10,1.95,2.50,2.38,0.49,
05/25/2025,21:17:53.50,-16.60,977.05,-0.49,3.54,0.00,1.25,
05/25/2025,21:17:53.52,-13.18,980.47,9.28,3.11,2.23,4.42,
05/25/2025,21:17:53.54,-15.14,976.56,-5.86,1.34,2.74,-1.28,
05/25/2025,21:17:53.56,-9.28,980.96,4.88,-1.25,0.82,0.18,
05/25/2025,21:17:53.58,-30.76,970.21,4.39,2.99,2.50,0.79,
05/25/2025,21:17:53.60,18.55,974.61,0.00,0.37,1.25,4.09,
05/25/2025,21:17:53.62,-12.21,978.52,-0.98,1.98,2.80,0.73,
05/25/2025,21:17:53.64,-7.81,979.98,-8.79,2.80,1.74,2.47,
05/25/2025,21:17:53.66,-91.31,974.61,35.64,3.05,-0.30,8.11,
05/25/2025,21:17:53.68,5.37,968.75,-9.77,2.20,0.76,2.59,
05/25/2025,21:17:53.70,46.39,971.19,-9.28,-0.15,4.18,1.07,
05/25/2025,21:17:53.72,-4.88,981.93,-4.88,2.90,4.73,-4.63,
05/25/2025,21:17:53.74,1.46,978.03,2.44,0.30,1.31,-0.15,
05/25/2025,21:17:53.76,0.49,978.52,-3.42,4.39,0.27,-1.01,
05/25/2025,21:17:53.82,-1.46,975.59,-5.37,2.26,1.22,0.06,
05/25/2025,21:17:53.84,-9.28,992.68,0.98,2.35,1.86,0.03,
05/25/2025,21:17:53.86,-5.37,973.63,-4.39,0.00,1.22,0.27,
05/25/2025,21:17:53.88,-15.62,983.89,-2.93,1.07,2.35,-1.25,
05/25/2025,21:17:53.90,-3.42,988.28,10.25,1.10,2.04,-0.85,
05/25/2025,21:17:53.92,-14.65,979.00,8.30,1.40,1.46,-0.34,
05/25/2025,21:17:53.94,-3.42,971.68,-4.39,-0.30,0.85,-0.30,
05/25/2025,21:17:53.96,-16.60,979.49,6.84,1.28,-0.37,-1.07,
05/25/2025,21:17:53.98,-10.74,987.79,-5.37,3.69,1.77,-0.76,
05/25/2025,21:17:54.00,-16.11,972.17,8.30,1.34,0.18,0.52,
05/25/2025,21:17:54.02,-16.11,976.56,6.84,1.55,4.33,0.49,
05/25/2025,21:17:54.04,0.98,991.70,-6.84,2.59,1.71,-3.11,
05/25/2025,21:17:54.06,-13.67,979.00,1.95,1.28,1.83,-0.67,
05/25/2025,21:17:54.08,6.35,975.59,0.49,1.74,0.15,-1.22,
05/25/2025,21:17:54.10,-18.55,977.54,2.93,2.01,1.28,-0.03,
05/25/2025,21:17:54.12,-4.39,979.00,2.93,0.76,0.40,-0.67,
05/25/2025,21:17:54.14,-9.77,974.12,1.46,0.43,2.23,0.24,
05/25/2025,21:17:54.16,-8.79,961.43,-1.46,0.73,1.68,-1.19,
05/25/2025,21:17:54.18,-16.60,979.98,1.46,-0.34,1.31,-2.16,
05/25/2025,21:17:54.20,-7.81,986.82,-5.86,2.20,-2.32,0.52,
05/25/2025,21:17:54.22,-12.70,977.54,-3.91,1.62,1.92,1.52,
05/25/2025,21:17:54.24,2.93,983.40,-1.95,2.96,0.98,1.77,
05/25/2025,21:17:54.26,-20.51,986.33,-8.79,2.74,1.98,2.04,
05/25/2025,21:17:54.28,-12.70,975.10,11.23,2.29,2.87,1.59,
05/25/2025,21:17:54.33,-4.88,976.07,13.67,1.68,2.38,-4.30,
05/25/2025,21:17:54.35,2.93,978.03,8.79,2.96,1.43,-0.67,
05/25/2025,21:17:54.37,-8.79,992.19,5.86,4.21,0.40,2.10,
05/25/2025,21:17:54.39,1.95,971.19,-5.37,-0.24,3.75,-0.34,
05/25/2025,21:17:54.41,-0.49,979.98,5.37,1.62,2.10,1.92,
05/25/2025,21:17:54.43,-4.88,979.00,10.74,2.13,1.92,0.73,
05/25/2025,21:17:54.45,-9.77,988.28,2.44,1.07,3.51,1.46,
05/25/2025,21:17:54.47,-11.23,975.59,7.32,0.79,1.19,-0.30,
05/25/2025,21:17:54.49,-9.77,983.89,-10.74,0.61,3.72,-1.98,
05/25/2025,21:17:54.51,-7.81,979.98,10.74,2.29,0.18,-2.13,
05/25/2025,21:17:54.53,-10.25,977.54,0.49,1.55,0.67,-1.16,
05/25/2025,21:17:54.55,-2.44,975.10,0.00,1.28,1.37,-3.20,
05/25/2025,21:17:54.57,-24.41,995.12,-1.46,1.34,2.23,-1.28,
05/25/2025,21:17:54.59,-3.91,980.96,0.00,2.20,1.16,1.92,
05/25/2025,21:17:54.61,-7.32,989.75,0.00,1.68,3.93,-2.13,
05/25/2025,21:17:54.63,6.35,980.96,-4.39,0.52,1.68,1.34,
05/25/2025,21:17:54.65,0.98,982.91,-0.49,0.00,2.68,0.09,
05/25/2025,21:17:54.67,3.91,981.93,6.35,1.92,2.96,-1.59,
05/25/2025,21:17:54.69,-6.84,972.66,2.44,1.92,1.01,-3.72,
05/25/2025,21:17:54.71,1.46,990.72,0.49,0.43,0.09,0.61,
05/25/2025,21:17:54.73,-4.39,980.47,0.00,0.49,2.87,1.25,
05/25/2025,21:17:54.75,-7.81,975.59,9.28,2.29,0.49,-1.37,
05/25/2025,21:17:54.77,-3.42,977.54,11.23,0.49,2.53,3.51,
05/25/2025,21:17:54.79,-5.86,974.61,4.39,-0.52,1.83,-1.13,
05/25/2025,21:17:54.84,-19.04,981.45,5.86,1.22,2.07,-2.13,
05/25/2025,21:17:54.86,-5.86,981.93,10.74,-0.34,1.80,-1.43,
05/25/2025,21:17:54.88,6.35,981.45,-5.86,-0.40,2.07,-2.77,
05/25/2025,21:17:54.90,4.88,996.58,-1.46,2.80,2.62,-0.18,
05/25/2025,21:17:54.92,-3.91,983.40,-2.44,2.93,0.49,-0.46,
05/25/2025,21:17:54.94,-21.97,971.19,-4.39,2.53,0.91,1.55,
05/25/2025,21:17:54.96,-12.21,978.52,-4.88,2.35,0.79,-1.71,
05/25/2025,21:17:54.98,-5.37,981.45,-4.39,3.20,1.19,-3.11,
05/25/2025,21:17:55.00,-6.84,967.29,-10.25,2.96,1.10,0.55,
05/25/2025,21:17:55.02,-18.55,988.28,0.00,-0.03,1.86,-3.08,
05/25/2025,21:17:55.04,-8.79,975.59,6.35,2.84,1.86,-1.01,
05/25/2025,21:17:55.06,-17.58,970.70,5.86,0.64,0.27,-0.55,
05/25/2025,21:17:55.08,-4.88,978.03,2.44,1.19,1.95,-0.67,
05/25/2025,21:17:55.10,0.00,975.59,3.91,2.74,1.77,1.37,
05/25/2025,21:17:55.12,-10.74,977.54,-1.46,1.98,1.31,-0.12,
05/25/2025,21:17:55.14,-0.98,981.45,3.91,1.62,3.32,3.11,
05/25/2025,21:17:55.16,-5.86,979.00,2.44,1.92,2.35,1.37,
05/25/2025,21:17:55.18,-7.32,991.21,3.42,1.98,0.12,-3.38,
05/25/2025,21:17:55.20,-6.35,966.80,2.44,1.19,2.04,-1.40,
05/25/2025,21:17:55.22,-6.35,981.45,5.86,2.87,0.70,-1.65,
05/25/2025,21:17:55.24,-11.23,979.98,3.91,1.95,1.83,-6.68,
05/25/2025,21:17:55.26,-12.70,965.82,-6.84,0.79,1.34,-4.02,
05/25/2025,21:17:55.28,-4.39,978.03,-0.49,1.07,4.36,-3.41,
05/25/2025,21:17:55.30,-13.18,974.61,-3.91,-1.07,2.32,2.47,
05/25/2025,21:17:55.35,0.00,972.17,9.77,0.85,2.04,-3.99,
05/25/2025,21:17:55.37,-5.37,983.40,0.49,0.61,0.61,0.46,
05/25/2025,21:17:55.39,-17.58,981.93,3.42,2.44,3.60,-3.35,
05/25/2025,21:17:55.41,0.98,983.89,7.32,-0.91,3.02,2.26,
05/25/2025,21:17:55.43,-9.28,975.59,1.46,1.83,2.38,0.15,
05/25/2025,21:17:55.45,-2.44,973.63,-5.86,2.56,3.38,-1.37,
05/25/2025,21:17:55.47,-8.30,973.14,-9.77,-0.18,3.17,-0.09,
05/25/2025,21:17:55.49,-6.84,979.00,5.37,0.12,0.46,-2.41,
05/25/2025,21:17:55.51,-17.09,971.19,0.49,2.44,-1.01,1.37,
05/25/2025,21:17:55.53,-9.28,972.66,-3.91,1.68,0.21,3.14,
05/25/2025,21:17:55.55,-3.91,972.66,7.32,2.50,1.98,0.37,
05/25/2025,21:17:55.57,-11.23,982.91,7.81,1.55,2.50,0.21,
05/25/2025,21:17:55.59,-8.30,975.10,0.98,1.19,0.70,2.74,
05/25/2025,21:17:55.61,-12.70,978.52,1.46,0.09,1.37,1.04,
05/25/2025,21:17:55.63,-15.14,976.56,3.91,2.23,0.88,5.15,
05/25/2025,21:17:55.65,-14.16,971.68,2.44,1.04,2.07,-1.01,
05/25/2025,21:17:55.68,-13.18,974.12,6.35,0.15,1.71,0.61,
05/25/2025,21:17:55.70,-4.39,978.03,0.00,0.15,-0.15,-0.58,
05/25/2025,21:17:55.72,-5.86,979.49,9.28,1.89,3.23,-0.52,
05/25/2025,21:17:55.74,-1.46,987.30,-0.98,2.59,-0.06,1.98,
05/25/2025,21:17:55.76,-6.84,983.40,-1.95,2.87,1.65,-1.16,
05/25/2025,21:17:55.78,1.46,980.47,-6.35,1.98,4.39,-1.95,
05/25/2025,21:17:55.80,-3.42,980.96,-4.88,0.06,3.14,-2.50,
05/25/2025,21:17:55.82,-4.88,976.56,0.98,0.70,3.26,-1.89,
05/25/2025,21:17:55.87,-10.25,967.29,0.00,0.52,2.59,-2.26,
05/25/2025,21:17:55.89,-20.02,981.45,5.86,1.40,1.13,-1.31,
05/25/2025,21:17:55.91,-12.70,975.59,-10.25,1.95,2.62,-1.80,
05/25/2025,21:17:55.93,-16.60,978.52,-1.95,1.07,1.95,-1.13,
05/25/2025,21:17:55.95,2.44,979.00,11.72,2.44,2.01,-1.68,
05/25/2025,21:17:55.97,-7.32,977.54,-9.77,2.16,0.03,-2.59,
05/25/2025,21:17:55.99,-14.65,986.33,-3.42,2.71,1.10,-1.07,
05/25/2025,21:17:56.01,-14.65,973.14,-12.70,1.98,1.65,2.47,
05/25/2025,21:17:56.03,0.98,977.54,0.00,2.68,1.04,-3.96,
05/25/2025,21:17:56.05,-8.79,983.40,-2.44,1.86,2.35,-1.07,
05/25/2025,21:17:56.07,-8.79,976.56,-4.88,2.38,3.69,-0.88,
05/25/2025,21:17:56.09,-5.37,973.14,-0.98,3.17,0.98,1.86,
05/25/2025,21:17:56.11,-13.67,983.89,0.00,0.15,1.77,0.24,
05/25/2025,21:17:56.13,-6.35,977.05,15.14,2.38,1.77,-0.09,
05/25/2025,21:17:56.15,-12.70,982.42,14.16,3.66,4.21,-1.10,
05/25/2025,21:17:56.17,-11.72,977.05,4.39,2.84,2.32,2.29,
05/25/2025,21:17:56.19,-4.39,987.30,0.49,1.86,-0.79,-0.58,
05/25/2025,21:17:56.21,-0.98,987.30,14.65,1.46,1.16,0.27,
05/25/2025,21:17:56.23,-0.98,977.05,9.77,1.16,-0.21,-2.74,
05/25/2025,21:17:56.25,-0.49,975.59,7.32,1.83,1.19,-0.24,
05/25/2025,21:17:56.27,-4.39,979.49,2.93,1.31,-0.03,-0.40,
05/25/2025,21:17:56.29,-11.72,988.28,-0.98,1.52,2.68,-0.30,
05/25/2025,21:17:56.31,-13.18,969.24,3.42,2.59,2.96,-1.59,
05/25/2025,21:17:56.33,-0.98,980.96,5.37,3.63,0.40,1.37,
05/25/2025,21:17:56.39,-18.55,977.54,1.46,2.32,-0.76,-1.52,
05/25/2025,21:17:56.41,-5.86,973.14,1.46,0.06,2.59,-0.09,
05/25/2025,21:17:56.43,-25.39,980.47,10.25,0.46,2.04,-0.30,
05/25/2025,21:17:56.45,-5.86,979.98,12.70,3.26,1.40,0.73,
05/25/2025,21:18:12.31,-19.53,978.03,8.30,1.89,1.65,-2.20,
05/25/2025,21:18:12.37,-7.81,980.96,1.95,0.91,4.09,1.16,
05/25/2025,21:18:12.39,-11.72,967.77,8.30,0.55,2.44,-0.34,
05/25/2025,21:18:12.41,-8.30,975.10,7.32,-0.09,1.52,-3.08,
05/25/2025,21:18:12.43,-1.95,969.24,5.86,1.74,1.71,-0.79,
05/25/2025,21:18:12.45,-8.79,971.68,6.84,2.62,1.10,-2.07,
05/25/2025,21:18:12.47,-2.93,980.47,-0.98,0.79,1.55,-3.02,
05/25/2025,21:18:12.49,-18.55,977.54,8.79,2.53,2.10,1.74,
05/25/2025,21:18:12.51,-10.74,984.38,9.77,0.37,4.39,-1.25,
05/25/2025,21:18:12.53,-16.60,977.05,6.84,0.64,1.55,-2.16,
05/25/2025,21:18:12.55,-11.23,971.19,0.49,2.35,0.49,-1.25,
05/25/2025,21:18:12.57,-2.44,968.26,2.93,2.13,1.01,-1.46,
05/25/2025,21:18:12.59,-7.81,983.40,6.84,1.62,1.04,1.01,
05/25/2025,21:18:12.61,-3.42,976.56,5.37,2.35,1.92,-4.05,
05/25/2025,21:18:12.63,-21.48,973.14,5.37,2.26,0.40,-0.85,
05/25/2025,21:18:12.65,-9.77,984.86,1.46,1.89,2.74,0.58,
05/25/2025,21:18:12.67,-4.39,980.96,-4.39,0.52,0.30,0.46,
05/25/2025,21:18:12.69,-2.93,981.45,10.74,-0.24,1.40,-3.05,
05/25/2025,21:18:12.71,6.35,979.00,11.72,0.64,0.85,-2.47,
05/25/2025,21:18:12.73,-12.70,984.38,11.23,0.55,0.88,-1.52,
05/25/2025,21:18:12.75,-4.88,987.79,9.77,2.99,1.89,0.43,
05/25/2025,21:18:12.77,-6.35,983.40,-2.44,2.07,3.63,-0.95,
05/25/2025,21:18:12.79,-6.35,979.00,5.37,2.38,2.56,1.89,
05/25/2025,21:18:12.81,-4.39,974.61,7.81,0.24,3.48,-0.67,
05/25/2025,21:18:12.83,-16.60,980.47,10.25,-0.06,0.91,-2.01,
05/25/2025,21:18:12.88,-2.93,984.38,-1.95,0.12,1.40,-0.67,
05/25/2025,21:18:12.90,-13.18,972.66,0.49,2.50,3.69,-0.52,
05/25/2025,21:18:12.92,-4.88,986.82,5.37,4.18,1.34,-0.88,
05/25/2025,21:18:12.94,-13.18,985.84,-8.79,2.16,0.91,-1.25,
05/25/2025,21:18:12.96,-12.70,969.73,9.77,1.04,2.68,0.70,
05/25/2025,21:18:12.98,-18.07,980.96,-2.93,2.47,0.85,1.80,
05/25/2025,21:18:13.00,-10.74,979.49,2.44,0.79,0.27,-0.43,
05/25/2025,21:18:13.02,-9.77,971.19,9.77,0.82,1.83,-1.43,
05/25/2025,21:18:13.04,-5.86,985.35,2.44,3.51,1.98,-1.89,
05/25/2025,21:18:13.06,-18.07,976.07,5.86,3.05,4.12,-1.62,
05/25/2025,21:18:13.08,-12.70,978.52,9.77,1.22,3.02,1.37,
05/25/2025,21:18:13.10,-14.16,979.00,8.79,1.59,2.01,-2.01,
05/25/2025,21:18:13.12,-19.04,978.52,-4.88,1.13,1.37,2.59,
05/25/2025,21:18:13.14,-7.32,979.49,8.79,3.11,1.65,-3.05,
05/25/2025,21:18:13.16,-16.60,979.98,3.91,3.48,1.01,1.10,
05/25/2025,21:18:13.18,-3.91,981.45,-3.42,3.57,3.23,-2.71,
05/25/2025,21:18:13.20,-1.46,967.29,5.37,2.29,0.00,-0.73,
05/25/2025,21:18:13.22,-17.58,971.19,13.67,0.15,2.35,-3.14,
05/25/2025,21:18:13.24,-2.44,967.29,1.46,-0.67,4.18,-0.49,
05/25/2025,21:18:13.26,-6.84,964.84,4.39,1.55,0.73,1.46,
05/25/2025,21:18:13.28,-6.35,979.49,1.46,0.85,1.10,2.84,
05/25/2025,21:18:13.30,-2.44,975.10,11.72,2.71,-1.31,-2.01,
05/25/2025,21:18:13.32,-27.83,973.14,8.30,0.73,0.55,-3.08,
05/25/2025,21:18:13.34,-9.77,980.96,8.30,1.71,0.67,-1.86,
05/25/2025,21:18:13.39,0.49,977.54,21.97,2.62,0.55,-1.46,
05/25/2025,21:18:13.41,-10.74,983.40,7.81,-0.21,0.18,-3.66,
05/25/2025,21:18:13.43,-25.39,979.00,-5.37,1.95,3.02,-2.84,
05/25/2025,21:18:13.45,-3.91,969.73,7.81,1.25,1.71,1.55,
05/25/2025,21:18:13.47,-19.53,977.54,12.70,-0.91,0.55,-1.16,
05/25/2025,21:18:13.49,-15.62,970.21,5.37,3.23,3.54,0.79,
05/25/2025,21:18:13.51,-3.91,980.96,-0.49,2.99,-2.99,0.70,
05/25/2025,21:18:13.53,-18.55,977.05,-1.95,2.93,2.74,1.01,
05/25/2025,21:18:13.55,-2.93,980.96,5.86,3.69,0.21,-0.06,
05/25/2025,21:18:13.57,-7.32,983.89,0.98,1.40,1.40,1.55,
05/25/2025,21:18:13.59,-11.72,988.77,-0.98,2.04,2.16,-3.78,
05/25/2025,21:18:13.62,-3.42,980.47,10.25,1.74,1.55,0.37,
05/25/2025,21:18:13.64,-4.39,985.35,19.53,0.27,3.05,-2.53,
05/25/2025,21:18:13.66,-3.42,970.21,-2.93,2.65,0.49,-2.26,
05/25/2025,21:18:13.68,-22.95,978.03,1.95,0.21,1.28,-1.62,
05/25/2025,21:18:13.70,-7.81,984.38,4.39,2.80,2.32,1.92,
05/25/2025,21:18:13.72,-8.30,979.98,1.46,-1.22,1.71,4.21,
05/25/2025,21:18:13.74,-13.67,994.63,0.49,1.01,1.83,-0.06,
05/25/2025,21:18:13.76,-8.30,980.47,7.32,2.71,2.71,-1.86,
05/25/2025,21:18:13.78,-3.91,971.68,10.25,0.76,2.04,-2.41,
05/25/2025,21:18:13.80,-2.93,978.52,8.79,1.22,3.54,-3.11,
05/25/2025,21:18:13.82,0.98,974.61,-8.30,3.29,1.49,-0.67,
05/25/2025,21:18:13.84,-8.79,971.19,-1.46,0.30,1.83,-1.25,
05/25/2025,21:18:13.86,-8.30,980.47,2.44,1.86,2.77,0.73,
05/25/2025,21:18:13.91,-8.30,990.23,1.95,0.82,0.15,-1.28,
05/25/2025,21:18:13.93,-14.65,983.40,6.35,0.95,2.84,-1.13,
05/25/2025,21:18:13.95,-22.95,968.75,-0.49,0.49,2.99,1.28,
05/25/2025,21:18:13.97,-26.86,966.80,7.81,2.38,2.44,-0.18,
05/25/2025,21:18:13.99,-4.88,989.26,-10.74,1.31,1.52,1.95,
05/25/2025,21:18:14.01,-21.00,987.30,-5.86,1.34,2.04,-2.23,
05/25/2025,21:18:14.03,2.44,965.33,2.93,1.25,4.39,0.73,
05/25/2025,21:18:14.05,-10.74,961.43,12.21,0.00,1.07,-1.80,
05/25/2025,21:18:14.07,-13.18,974.12,9.77,2.50,0.06,-1.80,
05/25/2025,21:18:14.09,-0.49,974.12,5.37,1.80,2.68,-2.04,
05/25/2025,21:18:14.11,-16.60,977.05,0.49,2.32,2.96,-2.47,
05/25/2025,21:18:14.13,-1.95,973.63,7.32,1.10,1.62,-1.49,
05/25/2025,21:18:14.15,-13.18,980.96,-1.46,1.13,2.84,-0.79,
05/25/2025,21:18:14.17,-5.37,961.43,7.32,1.31,1.40,1.83,
05/25/2025,21:18:14.19,1.95,986.33,9.77,1.55,2.01,-1.31,
05/25/2025,21:18:14.21,-7.81,984.38,9.77,1.86,1.10,-0.03,
05/25/2025,21:18:14.23,-9.28,987.79,-1.95,1.92,1.31,0.49,
05/25/2025,21:18:14.25,-11.72,984.38,6.35,2.65,1.83,1.52,
05/25/2025,21:18:14.27,-12.21,971.68,-3.42,3.11,1.37,1.01,
05/25/2025,21:18:14.29,-6.35,971.19,0.98,0.70,2.87,-1.13,
05/25/2025,21:18:14.31,-16.11,978.03,5.37,1.40,3.69,-2.56,
05/25/2025,21:18:14.33,-7.81,975.10,-0.98,2.29,0.55,-1.59,
05/25/2025,21:18:14.35,-14.65,975.10,2.44,2.53,1.59,-0.95,
05/25/2025,21:18:14.37,-7.81,975.59,2.44,0.88,2.26,-1.07,
05/25/2025,21:18:14.42,-2.93,978.52,9.28,-1.40,1.74,-1.55,
05/25/2025,21:18:14.44,-16.11,980.47,9.28,-1.34,1.77,0.43,
05/25/2025,21:18:14.46,-16.11,986.82,10.74,2.53,1.43,-2.10,
05/25/2025,21:18:14.48,-14.65,981.93,10.25,2.35,-0.46,-1.49,
05/25/2025,21:18:14.50,-8.79,981.93,4.39,0.00,1.01,-1.25,
05/25/2025,21:18:14.52,-6.84,983.89,10.74,2.29,2.80,1.68,
05/25/2025,21:18:14.54,-4.88,983.89,0.98,0.91,0.76,-0.88,
05/25/2025,21:18:14.56,-14.65,984.86,3.91,2.29,4.12,-1.71,
05/25/2025,21:18:14.58,-19.04,968.75,2.93,0.64,2.26,-1.71,
05/25/2025,21:18:14.60,-17.09,981.93,1.95,1.55,1.01,0.37,
05/25/2025,21:18:14.62,-15.14,977.54,8.30,1.62,3.90,-2.23,
05/25/2025,21:18:14.64,-18.55,964.84,7.81,3.57,2.59,2.62,
05/25/2025,21:18:14.66,-1.95,977.54,4.88,-0.06,0.70,-0.37,
05/25/2025,21:18:14.68,-13.18,983.89,5.37,1.28,1.62,-2.20,
05/25/2025,21:18:14.70,-7.32,969.24,10.25,1.55,0.06,-2.38,
05/25/2025,21:18:14.72,0.49,979.00,13.67,1.13,2.59,-0.58,
05/25/2025,21:18:14.74,-9.77,979.00,5.86,1.28,2.96,-1.31,
05/25/2025,21:18:14.76,-17.09,978.03,7.81,2.84,0.88,2.44,
05/25/2025,21:18:14.78,-7.32,980.47,12.21,0.70,2.35,-3.17,
05/25/2025,21:18:14.80,-11.72,973.63,0.98,-0.27,2.53,0.76,
05/25/2025,21:18:14.82,-10.25,982.91,4.88,3.38,3.51,-2.10,
05/25/2025,21:18:14.84,-2.93,978.52,2.44,2.96,0.67,0.18,
05/25/2025,21:18:14.86,-2.44,977.05,-5.86,0.58,0.55,0.00,
05/25/2025,21:18:14.88,-15.14,978.03,-4.39,1.62,-0.55,-0.40,
05/25/2025,21:18:14.93,-8.30,974.12,6.35,2.04,-1.34,-0.18,
05/25/2025,21:18:14.95,-9.28,983.40,7.81,4.33,4.63,-0.34,
05/25/2025,21:18:14.97,-3.91,973.14,-4.39,2.20,2.13,1.98,
05/25/2025,21:18:14.99,-9.77,980.96,-7.32,1.01,1.98,-0.82,
05/25/2025,21:18:15.01,-15.62,964.36,0.49,2.59,1.65,0.85,
05/25/2025,21:18:15.03,-5.86,969.24,8.79,-0.12,1.89,-1.49,
05/25/2025,21:18:15.05,0.49,979.00,7.32,-0.55,1.80,0.06,
05/25/2025,21:18:15.07,-5.86,985.35,4.39,2.13,-0.64,-0.15,
05/25/2025,21:18:15.09,-2.44,975.10,4.39,1.28,0.64,-0.67,
05/25/2025,21:18:15.11,9.77,972.66,4.88,1.22,1.37,-1.28,
05/25/2025,21:18:15.13,-9.28,980.96,5.37,0.37,3.41,-1.40,
05/25/2025,21:18:15.15,-4.88,980.47,-4.88,1.34,3.66,-2.77,
05/25/2025,21:18:15.17,-21.48,970.70,13.67,1.59,1.52,2.47,
05/25/2025,21:18:15.19,0.00,977.05,12.70,0.88,2.23,-1.98,
05/25/2025,21:18:15.21,-11.72,969.24,0.98,2.29,2.07,-0.88,
05/25/2025,21:18:15.23,5.37,970.70,8.30,1.95,-0.91,0.06,
05/25/2025,21:18:15.25,-4.39,985.84,11.72,1.13,2.77,-0.06,
05/25/2025,21:18:15.27,-7.81,977.05,13.67,1.49,1.22,1.37,
05/25/2025,21:18:15.29,-10.25,977.54,10.25,2.29,3.41,0.46,
05/25/2025,21:18:15.31,10.74,989.26,0.00,0.67,1.16,-0.52,
05/25/2025,21:18:15.33,2.44,990.72,8.30,-0.27,0.58,-1.52,
05/25/2025,21:18:15.35,9.28,970.21,4.39,0.30,1.98,-0.52,
05/25/2025,21:18:15.37,-21.00,974.61,3.42,1.71,1.22,-0.82,
05/25/2025,21:18:15.39,-5.37,984.86,-0.49,-0.06,1.62,-0.76,
05/25/2025,21:18:15.44,-17.09,984.86,1.95,2.65,2.01,-0.03,
05/25/2025,21:18:15.46,-5.86,981.93,-5.37,2.04,1.25,-3.20,
05/25/2025,21:18:15.48,-11.72,976.07,2.93,-0.43,2.35,-0.43,
05/25/2025,21:18:15.50,-3.42,964.84,7.32,2.32,1.89,0.30,
05/25/2025,21:18:15.52,-12.21,977.05,11.23,1.37,0.37,-0.61,
05/25/2025,21:18:15.54,-16.11,979.00,3.91,0.49,1.40,-0.67,
05/25/2025,21:18:15.56,5.37,976.56,6.84,1.46,2.07,-0.12,
05/25/2025,21:18:15.58,-17.58,972.66,2.93,0.43,1.86,-2.84,
05/25/2025,21:18:15.60,4.88,967.29,10.25,1.22,1.98,0.61,
05/25/2025,21:18:15.62,-10.74,981.93,3.42,2.74,2.44,-2.59,
05/25/2025,21:18:15.64,-6.35,981.45,-4.88,2.01,2.13,-1.71,
05/25/2025,21:18:15.66,-14.16,970.21,4.88,2.68,2.47,-2.53,
05/25/2025,21:18:15.68,-10.25,977.05,1.46,0.82,1.86,-1.95,
05/25/2025,21:18:15.70,0.49,986.33,-4.88,2.68,3.14,1.31,
05/25/2025,21:18:15.72,-10.74,987.30,0.98,0.79,0.82,1.10,
05/25/2025,21:18:15.75,-2.93,977.05,1.46,1.80,0.98,-2.53,
05/25/2025,21:18:15.77,-11.23,989.26,10.25,2.01,0.67,-2.13,
05/25/2025,21:18:15.79,-10.74,983.89,2.93,2.41,0.98,0.64,
05/25/2025,21:18:15.81,-12.70,985.84,12.21,1.49,1.98,-1.89,
05/25/2025,21:18:15.83,-47.85,827.15,34.67,-0.21,4.39,-1.25,
05/25/2025,21:18:15.85,0.98,974.61,-16.60,0.58,1.22,1.16,
05/25/2025,21:18:15.87,-7.81,982.91,2.44,2.50,1.89,-3.60,
05/25/2025,21:18:15.89,-10.25,986.33,6.84,3.87,1.89,-0.52,
05/25/2025,21:18:15.96,-7.81,968.75,9.28,3.02,0.12,-2.23,
05/25/2025,21:18:15.98,-9.77,973.63,3.91,0.40,3.45,2.44,
05/25/2025,21:18:16.00,-50.29,1039.06,-55.66,-0.18,-0.24,-1.95,
05/25/2025,21:18:16.02,-9.28,1022.46,22.95,0.70,2.99,-0.70,
05/25/2025,21:18:16.04,4.88,974.12,-3.91,0.30,2.13,-1.16,
05/25/2025,21:18:16.06,-3.42,970.70,10.74,1.65,5.27,1.10,
05/25/2025,21:18:16.08,2.93,981.45,12.21,2.20,0.30,-1.07,
05/25/2025,21:18:16.10,-1.46,980.47,10.74,0.61,2.35,-2.29,
05/25/2025,21:18:16.12,-9.28,970.21,-0.49,0.27,2.29,-1.68,
05/25/2025,21:18:16.14,-2.93,971.68,1.46,0.18,3.29,0.00,
05/25/2025,21:18:16.17,-21.48,986.33,14.16,2.47,1.34,-0.43,
05/25/2025,21:18:16.19,-2.44,978.03,5.86,2.74,-0.79,-0.61,
05/25/2025,21:18:16.21,2.93,965.82,9.28,0.40,-0.34,-2.13,
05/25/2025,21:18:16.23,-9.28,985.35,4.39,0.95,1.65,2.07,
05/25/2025,21:18:16.25,-10.25,983.89,1.46,2.20,-0.43,-0.79,
05/25/2025,21:18:16.27,-7.81,983.40,6.35,-0.24,1.80,2.56,
05/25/2025,21:18:16.29,-4.39,976.56,-5.86,1.46,3.48,-0.46,
05/25/2025,21:18:16.31,-16.60,978.52,11.72,1.34,0.67,-0.88,
05/25/2025,21:18:16.33,-7.81,979.98,7.32,2.20,2.68,0.79,
05/25/2025,21:18:16.35,-17.09,977.54,7.32,2.26,-0.67,0.37,
05/25/2025,21:18:16.37,-11.23,969.73,2.44,1.25,1.04,0.76,
05/25/2025,21:18:16.39,-4.39,971.19,3.91,1.68,1.83,-1.59,
05/25/2025,21:18:16.41,-3.42,978.03,5.86,1.49,3.20,-2.80,
05/25/2025,21:18:16.46,-0.49,986.33,-6.84,1.71,0.82,0.67,
05/25/2025,21:18:16.48,-19.04,979.98,2.44,1.86,4.12,-0.73,
05/25/2025,21:18:16.50,6.84,970.70,6.35,1.65,4.30,0.98,
05/25/2025,21:18:16.52,-11.72,972.66,10.74,0.55,1.65,1.65,
05/25/2025,21:18:16.54,-6.35,971.19,0.00,0.67,2.50,-0.09,
05/25/2025,21:18:16.56,-6.84,974.12,-3.42,-0.06,3.45,1.01,
05/25/2025,21:18:16.58,-1.95,976.56,9.28,1.25,2.50,-0.98,
05/25/2025,21:18:16.60,-8.79,984.38,1.46,1.65,0.55,1.10,
05/25/2025,21:18:16.62,-4.88,978.52,2.93,2.50,0.73,1.37,
05/25/2025,21:18:16.64,-13.67,977.54,0.49,2.47,1.55,1.65,
05/25/2025,21:18:16.66,-26.86,975.59,0.49,0.82,0.85,1.07,
05/25/2025,21:18:16.68,-9.77,983.89,4.88,2.38,1.86,1.04,
05/25/2025,21:18:16.70,-4.39,984.86,12.70,0.00,4.94,0.12,
05/25/2025,21:18:16.72,-4.88,984.38,11.72,1.95,0.67,-1.49,
05/25/2025,21:18:16.74,-14.65,973.14,9.77,2.56,1.92,-0.18,
05/25/2025,21:18:16.76,-5.86,972.66,1.46,1.89,1.40,-1.25,
05/25/2025,21:18:16.78,-2.93,967.29,7.81,1.68,0.49,-2.20,
05/25/2025,21:18:16.80,0.00,981.93,-0.98,4.02,1.98,-1.16,
05/25/2025,21:18:16.82,-3.42,987.79,-3.42,1.49,1.49,-2.04,
05/25/2025,21:18:16.84,-12.21,973.63,10.25,3.23,3.38,-2.16,
05/25/2025,21:18:16.86,3.91,982.42,4.88,0.24,2.04,-0.73,
05/25/2025,21:18:16.88,-9.77,961.91,12.70,1.40,2.26,-1.13,
05/25/2025,21:18:16.90,-11.72,977.05,6.84,2.71,1.89,0.43,
05/25/2025,21:18:16.92,-9.28,988.28,-1.95,1.40,0.24,1.83,
05/25/2025,21:18:16.97,-17.58,976.07,3.91,0.49,2.90,1.98,
05/25/2025,21:18:16.99,-5.37,971.19,7.81,1.37,3.38,2.26,
05/25/2025,21:18:17.01,0.98,980.47,1.46,2.74,2.47,-1.07,
05/25/2025,21:18:17.03,-14.65,985.35,-1.95,2.01,2.38,-1.01,
05/25/2025,21:18:17.05,-16.11,976.07,10.74,3.99,3.54,0.98,
05/25/2025,21:18:17.07,-13.18,976.07,1.95,0.40,-0.64,3.99,
05/25/2025,21:18:17.09,-14.65,980.47,-1.46,1.04,1.52,0.00,
05/25/2025,21:18:17.11,-6.35,982.42,6.84,1.34,2.84,0.79,
05/25/2025,21:18:17.13,-8.30,982.91,-1.95,2.32,0.88,-0.73,
05/25/2025,21:18:17.15,-6.84,985.35,4.88,2.41,2.44,0.24,
05/25/2025,21:18:17.17,-4.39,989.75,-7.32,0.00,0.85,-3.54,
05/25/2025,21:18:17.19,-2.44,969.24,1.46,2.35,-0.15,-2.10,
05/25/2025,21:18:17.21,-12.70,984.38,19.04,2.74,1.68,-0.27,
05/25/2025,21:18:17.23,-17.58,979.49,6.84,1.59,0.85,-3.20,
05/25/2025,21:18:17.25,-8.79,974.61,2.44,1.59,3.11,2.68,
05/25/2025,21:18:17.27,-23.93,988.77,1.95,1.31,1.77,-0.64,
05/25/2025,21:18:17.29,-5.37,975.59,2.93,0.43,0.49,0.55,
05/25/2025,21:18:17.31,-4.39,974.61,0.98,2.38,2.32,1.46,
05/25/2025,21:18:17.33,-6.35,991.70,3.42,3.69,0.24,0.27,
05/25/2025,21:18:17.35,-7.32,977.05,17.09,1.65,0.98,-0.58,
05/25/2025,21:18:17.37,-6.84,968.26,8.30,1.59,0.40,-0.40,
05/25/2025,21:18:17.39,-15.14,976.56,-2.44,1.40,3.26,-3.66,
05/25/2025,21:18:17.41,-1.46,972.17,13.18,1.40,1.80,-0.21,
05/25/2025,21:18:17.43,-13.18,978.52,11.72,1.83,2.99,0.40,
05/25/2025,21:18:17.48,-15.62,984.38,7.81,0.46,3.54,-0.12,
05/25/2025,21:18:17.50,-4.88,979.49,-2.93,4.18,1.22,2.41,
05/25/2025,21:18:17.52,-6.35,983.40,9.77,1.95,0.73,-0.49,
05/25/2025,21:18:17.54,-15.62,977.05,7.32,2.80,0.55,-3.69,
05/25/2025,21:18:17.56,-10.25,985.35,13.18,2.04,3.17,-1.49,
05/25/2025,21:18:17.58,-3.42,976.07,4.88,0.27,3.48,-1.80,
05/25/2025,21:18:17.60,-17.09,985.84,10.74,1.77,0.37,0.15,
05/25/2025,21:18:17.62,2.44,981.45,3.91,1.04,2.44,-0.21,
05/25/2025,21:18:17.64,-16.60,974.12,-5.86,1.92,-0.18,-0.24,
05/25/2025,21:18:17.66,-3.42,978.52,3.91,-0.03,2.80,0.24,
05/25/2025,21:18:17.68,-6.35,979.00,-0.98,1.28,-0.03,-0.18,
05/25/2025,21:18:17.70,-13.67,979.49,14.16,0.76,0.70,-3.20,
05/25/2025,21:18:17.72,-11.23,981.93,6.35,0.82,1.40,-3.81,
05/25/2025,21:18:17.74,-10.25,979.00,9.28,1.62,-0.82,-1.52,
05/25/2025,21:18:17.76,-6.84,965.33,4.88,1.22,2.47,2.07,
05/25/2025,21:18:17.78,-7.32,984.86,4.39,1.95,1.71,0.43,
05/25/2025,21:18:17.80,-7.81,984.38,5.37,-0.24,1.98,0.85,
05/25/2025,21:18:17.82,-17.58,982.42,-12.70,3.32,0.55,0.55,
05/25/2025,21:18:17.84,-9.77,987.79,5.37,1.04,1.59,0.52,
05/25/2025,21:18:17.86,-2.93,969.24,-2.93,1.86,1.86,-1.01,
05/25/2025,21:18:17.88,-3.91,991.21,3.42,2.80,1.77,-0.21,
05/25/2025,21:18:17.90,-6.84,970.70,4.88,0.00,1.01,-0.91,
05/25/2025,21:18:17.92,-15.14,984.38,0.00,2.16,1.74,-1.71,
05/25/2025,21:18:17.94,-4.88,976.56,9.28,0.85,0.40,-1.13,
05/25/2025,21:18:18.00,-1.46,979.49,9.28,1.95,2.16,0.82,
05/25/2025,21:18:18.02,-18.07,970.70,8.30,2.96,0.40,0.46,
05/25/2025,21:18:18.04,-5.37,980.96,-5.37,1.55,3.17,-0.82,
05/25/2025,21:18:18.06,-3.42,982.42,10.25,1.43,-1.49,-0.88,
05/25/2025,21:18:18.08,-13.67,977.05,4.88,1.07,2.01,-2.50,
05/25/2025,21:18:18.10,1.95,970.70,-8.30,0.55,2.20,-3.63,
05/25/2025,21:18:18.12,-20.51,984.86,12.70,0.64,1.95,-1.37,
05/25/2025,21:18:18.14,-9.28,973.63,16.60,1.22,1.80,-1.95,
05/25/2025,21:18:18.16,-7.81,971.68,5.86,4.85,2.84,0.67,
05/25/2025,21:18:18.18,-12.70,987.30,-0.49,-0.03,1.01,-4.57,
05/25/2025,21:18:18.20,2.44,978.52,2.93,2.90,2.41,-1.46,
05/25/2025,21:18:18.22,-3.91,976.07,2.93,-0.91,3.57,-2.80,
05/25/2025,21:18:18.24,-13.18,978.52,2.93,0.76,2.32,1.55,
05/25/2025,21:18:18.26,-8.79,983.89,4.88,0.55,3.29,-3.08,
05/25/2025,21:18:18.28,-4.39,975.59,6.35,0.37,0.43,-1.80,
05/25/2025,21:18:18.30,-19.04,978.03,20.02,2.32,2.29,-1.19,
05/25/2025,21:18:18.32,-12.70,978.52,4.39,1.55,2.16,2.38,
05/25/2025,21:18:18.34,-13.67,969.24,4.88,2.29,2.35,1.74,
05/25/2025,21:18:18.36,-11.23,980.47,5.86,-0.27,2.47,0.24,
05/25/2025,21:18:18.38,-9.77,980.47,7.32,1.83,2.96,-0.55,
05/25/2025,21:18:18.40,-10.25,992.19,0.49,0.73,1.25,-0.15,
05/25/2025,21:18:18.42,-9.28,975.59,-0.98,3.11,3.51,-2.80,
05/25/2025,21:18:18.44,-1.46,977.54,17.09,2.71,1.16,-2.77,
05/25/2025,21:18:18.46,-15.62,972.17,11.23,2.29,1.25,-1.98,
05/25/2025,21:18:18.51,-20.51,971.19,0.49,-0.37,1.31,-2.65,
05/25/2025,21:18:18.53,-12.70,981.45,5.86,2.80,1.71,-1.28,
05/25/2025,21:18:18.55,-5.86,989.26,0.49,1.31,2.20,0.88,
05/25/2025,21:18:18.57,-1.46,985.35,2.93,0.82,2.93,-1.07,
05/25/2025,21:18:18.59,-8.30,983.89,-2.44,2.04,0.40,-0.85,
05/25/2025,21:18:18.61,-1.46,977.54,0.49,1.92,0.52,-0.06,
05/25/2025,21:18:18.63,-16.60,972.17,-1.46,-0.12,2.16,-3.02,
05/25/2025,21:18:18.65,-0.98,979.98,5.86,-0.34,0.64,-3.96,
05/25/2025,21:18:18.67,-12.21,984.86,-4.39,0.91,2.47,-1.10,
05/25/2025,21:18:18.69,0.49,972.66,10.74,1.13,0.91,-1.04,
05/25/2025,21:18:18.71,-22.95,967.29,3.42,-0.03,1.74,-3.32,
05/25/2025,21:18:18.73,-4.39,984.38,-1.95,1.13,1.83,-0.15,
05/25/2025,21:18:18.75,-13.67,976.56,0.00,2.77,1.34,-2.96,
05/25/2025,21:18:18.77,-19.04,976.07,3.91,0.95,0.67,-4.33,
05/25/2025,21:18:18.79,-3.91,976.07,4.88,0.98,1.80,1.83,
05/25/2025,21:18:18.81,-15.62,980.47,2.93,1.74,3.20,0.85,
05/25/2025,21:18:18.83,-19.53,980.96,1.46,2.01,0.64,-1.86,
05/25/2025,21:18:18.85,-4.39,979.49,6.84,0.06,2.84,0.55,
05/25/2025,21:18:18.87,-16.11,976.56,3.91,3.26,2.77,0.58,
05/25/2025,21:18:18.89,-4.88,981.45,2.44,1.43,0.70,0.82,
05/25/2025,21:18:18.91,-10.74,988.28,9.28,1.86,1.19,-1.19,
05/25/2025,21:18:18.93,-3.42,969.73,-3.91,1.86,3.38,-1.68,
05/25/2025,21:18:18.95,1.46,973.63,3.42,1.95,3.11,-0.98,
05/25/2025,21:18:18.98,-5.86,966.80,0.00,1.28,1.46,-1.37,
05/25/2025,21:18:19.02,-14.65,969.73,2.93,1.49,1.71,-3.02,
05/25/2025,21:18:19.04,-17.58,989.26,-2.93,0.46,-0.03,0.00,
05/25/2025,21:18:19.06,-9.28,969.73,-8.79,-0.76,0.55,-3.20,
05/25/2025,21:18:19.08,-9.28,972.66,12.21,-0.12,1.25,2.41,
05/25/2025,21:18:19.10,-0.49,986.82,-3.42,0.58,0.88,-0.40,
05/25/2025,21:18:19.13,-11.23,972.17,-2.93,0.34,2.16,-3.14,
05/25/2025,21:18:19.15,-20.51,974.61,21.00,0.37,2.53,-2.93,
05/25/2025,21:18:19.17,-7.32,972.17,12.70,0.34,0.49,-1.77,
05/25/2025,21:18:19.19,-14.16,961.43,3.42,0.27,1.62,-1.65,
05/25/2025,21:18:19.21,-7.81,982.91,-5.37,2.62,0.40,0.27,
05/25/2025,21:18:19.23,-12.70,973.63,0.00,-0.98,3.57,-0.30,
05/25/2025,21:18:19.25,-12.70,974.12,1.46,0.30,4.18,0.40,
05/25/2025,21:18:19.27,3.91,977.54,8.79,0.12,1.46,-0.73,
05/25/2025,21:18:19.29,-7.32,986.33,0.49,-0.52,2.84,-0.95,
05/25/2025,21:18:19.31,-13.18,989.75,10.25,1.40,0.61,0.27,
05/25/2025,21:18:19.33,-0.49,979.98,3.42,1.95,0.06,-2.41,
05/25/2025,21:18:19.35,-4.39,984.38,11.23,1.28,1.46,-0.67,
05/25/2025,21:18:19.37,-15.14,975.10,4.39,2.38,2.74,-1.25,
05/25/2025,21:18:19.39,-7.81,981.45,-1.46,2.04,0.73,-2.93,
05/25/2025,21:18:19.41,-2.93,969.73,8.79,1.55,3.14,-0.61,
05/25/2025,21:18:19.43,-16.60,971.19,5.86,-0.40,0.24,0.09,
05/25/2025,21:18:19.45,-17.09,974.12,14.16,3.32,1.16,-0.18,
05/25/2025,21:18:19.47,-3.91,968.75,0.00,1.80,2.56,-0.76,
05/25/2025,21:18:19.49,-19.53,976.07,0.98,0.30,1.40,0.79,
05/25/2025,21:18:19.54,-9.28,978.03,5.86,2.35,0.43,-0.82,
05/25/2025,21:18:19.56,-8.30,974.61,-2.44,1.16,1.07,-1.98,
05/25/2025,21:18:19.58,-1.46,978.03,14.65,1.49,0.12,-1.83,
05/25/2025,21:18:19.60,0.49,991.70,11.72,2.41,2.47,-1.55,
05/25/2025,21:18:19.62,0.00,981.93,3.91,1.83,4.66,-0.37,
05/25/2025,21:18:19.64,-6.84,972.66,-2.44,1.74,2.26,-2.07,
05/25/2025,21:18:19.66,8.79,970.21,9.28,1.55,2.68,-0.37,
05/25/2025,21:18:19.68,2.44,972.66,3.42,1.89,1.92,-2.41,
05/25/2025,21:18:19.70,-3.91,975.59,17.09,1.74,0.43,-0.64,
05/25/2025,21:18:19.72,-6.84,967.29,8.30,1.55,2.44,-0.91,
05/25/2025,21:18:19.74,-6.84,981.93,15.14,0.03,-0.46,-3.75,
05/25/2025,21:18:19.76,-15.62,959.96,7.32,-0.18,0.79,-2.32,
05/25/2025,21:18:19.78,-5.37,976.07,17.09,1.40,1.86,-0.76,
05/25/2025,21:18:19.80,-16.60,971.19,6.84,1.55,1.46,-2.13,
05/25/2025,21:18:19.82,-8.30,977.05,16.11,1.55,0.18,-1.65,
05/25/2025,21:18:19.84,-6.35,975.59,4.88,2.47,-0.46,-1.07,
05/25/2025,21:18:19.86,-5.86,973.63,-5.86,2.41,0.73,-0.40,
05/25/2025,21:18:19.88,-9.28,987.30,9.77,0.46,1.77,-0.79,
05/25/2025,21:18:19.90,-13.18,972.66,4.88,1.31,1.22,-4.63,
05/25/2025,21:18:19.92,-13.18,978.03,-0.49,1.31,-0.27,-2.41,
05/25/2025,21:18:19.94,-20.02,970.21,2.44,2.62,2.56,-0.15,
05/25/2025,21:18:19.96,-0.98,976.56,4.88,2.01,3.75,-0.06,
05/25/2025,21:18:19.98,-9.77,976.56,9.77,0.61,0.40,1.49,
05/25/2025,21:18:20.00,-16.11,985.84,3.91,1.62,2.99,-2.80,
05/25/2025,21:18:20.05,-8.30,970.70,4.39,1.52,2.96,-1.25,
05/25/2025,21:18:20.07,-9.28,964.84,0.49,-0.30,2.10,-2.23,
05/25/2025,21:18:20.09,-6.35,976.07,14.65,1.95,2.47,-0.43,
05/25/2025,21:18:20.11,-13.67,970.70,4.88,1.83,4.88,-0.73,
05/25/2025,21:18:20.13,-15.62,979.00,12.70,1.37,1.65,0.21,
05/25/2025,21:18:20.15,-8.79,981.93,8.30,1.74,-0.64,-0.37,
05/25/2025,21:18:20.17,-2.44,985.84,7.81,1.43,1.16,0.12,
05/25/2025,21:18:20.19,7.32,979.98,6.35,1.49,3.26,-0.30,
05/25/2025,21:18:20.21,-4.88,976.56,-0.98,2.13,2.32,0.18,
05/25/2025,21:18:20.23,-17.58,976.07,-4.39,1.55,0.06,-0.52,
05/25/2025,21:18:20.25,-13.67,975.10,4.39,1.34,2.35,0.91,
05/25/2025,21:18:20.27,-13.67,986.82,3.42,3.02,0.55,0.12,
05/25/2025,21:18:20.29,-8.30,984.38,6.35,1.31,3.63,0.12,
05/25/2025,21:18:20.31,-9.28,984.38,13.67,3.05,2.10,0.18,
05/25/2025,21:18:20.33,-1.95,984.38,0.98,2.16,4.24,1.74,
05/25/2025,21:18:20.35,-21.00,985.35,18.07,0.76,3.72,-0.79,
05/25/2025,21:18:20.37,-0.49,983.40,5.37,0.98,1.46,-3.35,
05/25/2025,21:18:20.39,-10.74,971.68,1.46,-0.37,1.52,-3.23,
05/25/2025,21:18:20.41,-18.55,986.82,-0.98,1.52,2.01,-0.95,
05/25/2025,21:18:20.43,-14.16,981.93,8.79,2.65,0.06,0.52,
05/25/2025,21:18:20.45,-6.84,979.00,12.70,1.55,3.08,-0.49,
05/25/2025,21:18:20.47,-1.46,977.54,3.42,0.03,1.49,-0.64,
05/25/2025,21:18:20.49,-15.62,976.07,8.30,2.93,3.14,-1.65,
05/25/2025,21:18:20.51,1.46,978.03,6.35,1.40,2.74,-2.20,
05/25/2025,21:18:20.57,-0.49,979.98,4.39,3.87,0.98,0.46,
05/25/2025,21:18:20.59,-3.42,981.45,17.58,0.49,-0.34,-1.62,
05/25/2025,21:18:20.61,-7.32,983.89,-3.91,1.80,-0.21,-1.59,
05/25/2025,21:18:20.63,-9.28,976.07,5.37,2.32,2.32,0.67,
05/25/2025,21:18:20.65,-12.21,979.00,2.93,-1.40,2.59,-0.91,
05/25/2025,21:18:20.67,-11.23,974.12,9.28,1.07,1.16,0.61,
05/25/2025,21:18:20.69,-0.98,967.29,6.35,0.37,3.38,-1.31,
05/25/2025,21:18:20.71,-10.25,978.52,9.28,0.49,1.52,0.21,
05/25/2025,21:18:20.73,-11.72,970.70,2.93,3.48,1.55,2.41,
05/25/2025,21:18:20.75,-6.35,966.80,13.67,3.57,1.86,0.09,
05/25/2025,21:18:20.77,-6.84,959.47,7.81,1.37,1.52,-0.30,
05/25/2025,21:18:20.79,-16.60,981.45,0.00,-0.03,2.41,-0.70,
05/25/2025,21:18:20.81,3.42,983.89,5.37,3.20,3.60,0.52,
05/25/2025,21:18:20.83,-2.93,979.49,8.79,0.43,0.88,-4.60,
05/25/2025,21:18:20.85,-9.28,977.54,-0.98,0.79,0.34,0.37,
05/25/2025,21:18:20.87,-14.16,976.56,-2.44,2.53,1.55,0.61,
05/25/2025,21:18:20.89,-15.62,992.68,-0.98,-0.43,0.85,-0.06,
05/25/2025,21:18:20.91,-14.16,984.38,-0.49,4.30,1.86,-0.70,
05/25/2025,21:18:20.93,-4.39,980.47,2.93,0.30,1.68,-1.25,
05/25/2025,21:18:20.95,-7.81,972.66,-6.35,-0.49,0.34,-2.13,
05/25/2025,21:18:20.97,-14.16,971.19,7.32,0.24,5.09,0.30,
05/25/2025,21:18:20.99,3.42,984.38,0.49,1.01,2.87,0.21,
05/25/2025,21:18:21.01,-11.23,966.80,9.77,1.10,3.14,-0.52,
05/25/2025,21:18:21.03,-6.35,991.21,1.95,0.64,0.64,0.73,
05/25/2025,21:18:21.08,9.77,956.05,-0.98,-0.27,1.40,-0.82,
05/25/2025,21:18:21.10,-12.21,967.29,1.46,2.04,0.03,0.18,
05/25/2025,21:18:21.12,-1.46,984.86,17.58,0.76,3.14,2.74,
05/25/2025,21:18:21.14,-4.39,974.61,18.55,0.09,2.29,-1.74,
05/25/2025,21:18:21.16,5.86,979.98,1.46,2.77,-0.61,3.96,
05/25/2025,21:18:21.18,-8.79,985.35,9.28,2.38,0.98,-3.11,
05/25/2025,21:18:21.20,0.00,982.91,6.35,1.16,1.19,-2.10,
05/25/2025,21:18:21.22,-11.72,979.00,3.91,0.24,2.38,0.76,
05/25/2025,21:18:21.24,-6.35,976.07,5.37,3.66,-0.40,2.99,
05/25/2025,21:18:21.26,-16.11,984.38,12.70,2.44,3.99,0.27,
05/25/2025,21:18:21.28,-11.72,968.75,10.25,0.70,3.26,-0.52,
05/25/2025,21:18:21.30,-6.35,988.28,0.49,2.59,1.68,-1.52,
05/25/2025,21:18:21.32,-8.79,990.72,6.84,1.74,1.95,1.71,
05/25/2025,21:18:21.34,-4.39,972.66,3.42,0.64,2.23,-0.18,
05/25/2025,21:18:21.36,-4.39,979.49,-0.49,1.62,2.93,0.88,
05/25/2025,21:18:21.38,-22.46,985.35,2.93,0.06,3.11,0.43,
05/25/2025,21:18:21.40,-17.58,980.96,12.21,1.28,0.82,-1.01,
05/25/2025,21:18:21.42,-15.62,981.93,3.91,2.01,2.65,-0.76,
05/25/2025,21:18:21.44,0.98,973.14,8.79,-1.01,3.23,-4.57,
05/25/2025,21:18:21.46,0.98,976.07,5.86,1.55,1.43,-1.34,
05/25/2025,21:18:21.48,1.46,973.63,3.91,0.67,2.56,0.21,
05/25/2025,21:18:21.50,-9.28,982.42,3.91,2.23,0.98,0.85,
05/25/2025,21:18:21.52,-10.25,978.52,9.77,2.29,3.54,-0.15,
05/25/2025,21:18:21.54,-9.77,978.03,5.37,-0.03,2.20,0.73,
05/25/2025,21:18:21.59,2.44,978.03,5.86,0.00,3.35,-3.14,
05/25/2025,21:18:21.61,-9.28,972.17,0.98,1.71,0.09,0.64,
05/25/2025,21:18:21.63,1.46,975.59,14.16,1.31,2.90,0.06,
05/25/2025,21:18:21.65,3.42,985.35,13.67,2.10,2.65,-2.26,
05/25/2025,21:18:21.67,-13.67,977.05,20.02,-1.04,1.95,-3.84,
05/25/2025,21:18:21.69,-17.09,977.54,12.70,1.59,1.01,0.06,
05/25/2025,21:18:21.71,9.28,984.86,6.35,-0.67,0.91,-1.95,
05/25/2025,21:18:21.73,-11.23,985.84,-4.39,-1.16,0.52,-1.68,
05/25/2025,21:18:21.75,-7.81,994.14,14.16,-1.34,2.68,-0.24,
05/25/2025,21:18:21.77,2.93,983.40,-1.46,0.82,1.22,-0.55,
05/25/2025,21:18:21.79,-1.95,980.96,3.42,2.41,2.13,0.70,
05/25/2025,21:18:21.81,-5.37,981.45,14.16,1.95,2.35,-1.49,
05/25/2025,21:18:21.83,-7.81,972.17,0.98,0.95,4.24,-2.01,
05/25/2025,21:18:21.85,4.88,975.10,7.81,1.89,0.79,1.49,
05/25/2025,21:18:21.87,-6.84,978.52,-6.35,2.32,2.47,2.93,
05/25/2025,21:18:21.89,-17.09,973.63,6.84,1.46,-0.40,-0.95,
05/25/2025,21:18:21.91,-15.62,981.45,7.32,-0.15,1.65,-3.23,
05/25/2025,21:18:21.94,-13.18,973.14,2.44,1.83,2.38,-2.10,
05/25/2025,21:18:21.96,-5.37,970.70,6.35,2.50,1.13,0.61,
05/25/2025,21:18:21.98,-16.11,979.49,10.74,0.27,2.23,-0.34,
05/25/2025,21:18:22.00,-25.88,980.96,20.51,3.32,2.26,-2.90,
05/25/2025,21:18:22.02,-2.44,983.40,2.93,2.47,2.56,-1.71,
05/25/2025,21:18:22.04,-2.93,975.59,1.46,3.02,1.52,0.06,
05/25/2025,21:18:22.06,-11.23,972.66,0.98,1.25,4.09,-2.50,
05/25/2025,21:18:22.11,-5.37,978.03,-1.95,2.50,2.74,-0.21,
05/25/2025,21:18:22.13,-10.74,984.86,-9.77,1.59,3.84,-1.04,
05/25/2025,21:18:22.15,-10.74,983.89,2.44,0.46,2.29,-0.98,
05/25/2025,21:18:22.17,-3.91,979.98,0.00,0.85,0.12,1.19,
05/25/2025,21:18:22.19,-7.81,973.63,1.95,1.52,0.85,2.38,
05/25/2025,21:18:22.21,-16.11,983.89,6.84,2.20,2.20,-1.19,
05/25/2025,21:18:22.23,-3.42,964.84,-1.95,-0.37,1.98,-3.38,
05/25/2025,21:18:22.25,-12.21,979.98,6.84,0.12,3.26,0.85,
05/25/2025,21:18:22.27,-6.84,979.00,9.28,-0.03,1.62,0.37,
05/25/2025,21:18:22.29,-10.25,990.23,-0.98,1.95,2.77,0.98,
05/25/2025,21:18:22.31,-9.77,977.05,7.81,2.10,1.19,2.62,
05/25/2025,21:18:22.33,-16.60,978.03,10.25,2.71,1.55,-0.73,
05/25/2025,21:18:22.35,-12.70,973.14,4.39,0.88,1.37,-2.32,
05/25/2025,21:18:22.37,-5.37,989.75,-2.93,2.53,1.59,-1.04,
05/25/2025,21:18:22.39,-4.39,980.96,5.86,-0.58,-1.46,-3.14,
05/25/2025,21:18:22.41,-10.25,963.38,18.55,2.71,2.44,1.07,
05/25/2025,21:18:22.43,-18.55,964.36,5.86,0.98,3.54,-0.27,
05/25/2025,21:18:22.45,-10.25,970.21,11.23,1.77,3.38,-1.55,
05/25/2025,21:18:22.47,-17.09,982.91,7.32,2.77,4.70,0.09,
05/25/2025,21:18:22.49,0.49,990.72,-2.93,2.50,0.27,-1.16,
05/25/2025,21:18:22.51,-15.14,989.26,5.37,-1.01,1.65,-1.37,
05/25/2025,21:18:22.53,-16.60,965.33,3.42,-2.32,2.96,-1.80,
05/25/2025,21:18:22.55,-18.07,971.19,11.72,0.55,0.70,2.10,
05/25/2025,21:18:22.57,0.00,983.89,-1.95,-0.18,0.88,0.95,
05/25/2025,21:18:22.62,0.98,983.40,0.00,1.34,0.64,-2.23,
05/25/2025,21:18:22.64,-11.72,973.63,5.86,0.03,3.63,-4.12,
05/25/2025,21:18:22.66,-7.81,975.59,-1.95,1.43,2.41,0.58,
05/25/2025,21:18:22.68,-3.42,979.98,9.28,1.98,2.26,-3.17,
05/25/2025,21:18:22.70,-4.39,973.14,12.21,3.48,1.80,-0.49,
05/25/2025,21:18:22.72,-15.14,976.07,1.95,0.21,3.48,1.55,
05/25/2025,21:18:22.74,-8.30,971.68,8.79,0.95,1.89,2.20,
05/25/2025,21:18:22.76,-13.67,976.56,0.00,1.59,2.44,-0.91,
05/25/2025,21:18:22.78,-0.49,981.45,1.46,0.12,2.90,-1.68,
05/25/2025,21:18:22.80,-11.72,975.59,13.18,1.68,2.13,2.13,
05/25/2025,21:18:22.82,-4.39,986.33,11.72,3.84,2.50,-1.74,
05/25/2025,21:18:22.84,-12.21,984.86,0.00,2.10,2.01,-2.35,
05/25/2025,21:18:22.86,-25.39,967.29,5.86,1.28,1.68,-0.03,
05/25/2025,21:18:22.88,-9.28,975.59,3.91,2.16,1.34,-2.26,
05/25/2025,21:18:22.90,-14.65,985.35,4.88,1.86,2.04,0.76,
05/25/2025,21:18:22.92,-3.42,982.42,7.32,0.98,2.23,-4.48,
05/25/2025,21:18:22.94,-11.72,984.38,-2.44,1.10,0.06,0.73,
05/25/2025,21:18:22.96,-17.09,984.38,-2.44,2.29,2.50,0.61,
05/25/2025,21:18:22.98,-0.49,983.40,2.93,1.10,2.23,1.55,
05/25/2025,21:18:23.00,-15.62,968.75,2.44,2.16,1.01,-0.55,
05/25/2025,21:18:23.02,-17.09,980.96,14.16,-0.24,4.97,-2.68,
05/25/2025,21:18:23.04,-6.84,973.63,2.93,2.26,3.41,-1.74,
05/25/2025,21:18:23.06,-23.93,974.12,-0.98,2.38,1.55,-1.71,
05/25/2025,21:18:23.08,-7.32,980.96,-0.49,-0.49,1.07,1.68,
05/25/2025,21:18:23.13,-11.23,976.07,2.93,1.43,0.95,2.16,
05/25/2025,21:18:23.15,-5.37,981.45,-1.95,3.96,4.63,1.22,
05/25/2025,21:18:23.17,-16.60,961.91,1.46,2.93,0.40,-0.37,
05/25/2025,21:18:23.19,-14.65,980.96,-0.98,1.10,2.26,0.43,
05/25/2025,21:18:23.21,-5.37,977.54,-5.86,-0.27,3.08,-2.35,
05/25/2025,21:18:23.23,-15.14,979.00,0.98,0.27,2.71,0.00,
05/25/2025,21:18:23.25,-11.72,982.91,15.62,0.43,2.77,0.49,
05/25/2025,21:18:23.27,-17.58,973.63,4.88,3.32,3.48,-3.08,
05/25/2025,21:18:23.29,-8.79,973.63,15.62,1.55,4.15,-1.46,
05/25/2025,21:18:23.31,-8.79,967.29,-0.49,1.95,3.60,-1.28,
05/25/2025,21:18:23.33,-6.84,978.52,4.88,0.09,2.16,1.77,
05/25/2025,21:18:23.35,-18.55,979.98,-3.91,1.55,1.83,-2.23,
05/25/2025,21:18:23.37,-7.81,965.82,-3.91,2.20,-0.40,0.37,
05/25/2025,21:18:23.39,-3.91,981.93,5.86,-0.15,0.24,-1.19,
05/25/2025,21:18:23.41,-11.72,978.52,-2.44,2.01,1.55,-0.79,
05/25/2025,21:18:23.43,-2.44,981.45,18.55,2.20,2.26,1.77,
05/25/2025,21:18:23.45,-12.21,974.12,6.35,1.40,3.45,0.18,
05/25/2025,21:18:23.47,-17.58,966.31,5.86,1.80,0.58,0.27,
05/25/2025,21:18:23.49,-3.91,966.31,6.84,2.20,4.30,-0.91,
05/25/2025,21:18:23.51,-6.35,990.72,-13.18,1.92,2.59,1.25,
05/25/2025,21:18:23.53,-7.81,976.07,-2.44,0.98,1.98,0.49,
05/25/2025,21:18:23.55,-0.49,979.49,13.18,1.43,1.16,1.98,
05/25/2025,21:18:23.57,-19.53,975.10,-0.98,-0.46,3.57,0.91,
05/25/2025,21:18:23.59,-2.44,975.59,-3.91,0.49,1.04,-0.76,
05/25/2025,21:18:23.64,4.39,983.40,0.98,0.15,2.35,1.13,
05/25/2025,21:18:23.66,-4.39,972.66,1.46,4.05,4.24,-0.88,
05/25/2025,21:18:23.68,-9.28,984.86,13.67,-0.24,2.07,0.61,
05/25/2025,21:18:23.70,-11.23,961.91,0.49,2.04,3.11,0.85,
05/25/2025,21:18:23.72,-2.93,979.98,1.46,2.77,3.38,1.40,
05/25/2025,21:18:23.74,-14.16,980.47,-1.95,1.28,-0.18,2.56,
05/25/2025,21:18:23.76,-0.49,987.30,4.39,3.32,1.59,-2.71,
05/25/2025,21:18:23.78,-12.21,974.61,9.77,1.34,1.89,-0.85,
05/25/2025,21:18:23.80,-7.81,974.12,4.39,0.61,1.68,-0.21,
05/25/2025,21:18:23.82,-20.02,984.86,11.23,0.61,4.73,-2.13,
05/25/2025,21:18:23.84,-8.79,974.61,2.44,2.68,1.25,-1.28,
05/25/2025,21:18:23.86,-13.18,970.21,6.84,2.32,1.40,-3.72,
05/25/2025,21:18:23.88,-2.44,975.10,8.79,1.31,0.88,0.52,
05/25/2025,21:18:23.90,-0.49,982.42,5.86,3.08,1.62,0.70,
05/25/2025,21:18:23.92,-15.62,977.54,11.23,-1.10,1.28,-1.80,
05/25/2025,21:18:23.94,-14.16,992.68,4.39,0.95,1.71,1.04,
05/25/2025,21:18:23.96,-16.11,983.89,1.95,0.09,2.04,-0.67,
05/25/2025,21:18:23.98,-16.60,983.40,0.49,2.47,1.95,1.07,
05/25/2025,21:18:24.00,0.49,979.49,3.91,1.77,1.49,-0.24,
05/25/2025,21:18:24.02,-2.44,976.56,10.74,1.92,1.65,1.77,
05/25/2025,21:18:24.04,-1.95,981.45,9.28,0.15,1.98,1.83,
05/25/2025,21:18:24.06,-18.55,978.52,-1.46,-1.59,0.95,-0.30,
05/25/2025,21:18:24.08,-6.84,981.93,0.98,1.98,1.40,-1.62,
05/25/2025,21:18:24.11,0.49,970.21,-1.95,1.59,3.96,0.30,
05/25/2025,21:18:24.15,-6.84,974.61,10.25,0.70,2.35,-2.41,
05/25/2025,21:18:24.17,-11.72,977.54,2.44,2.10,-0.27,-0.55,
05/25/2025,21:18:24.19,-13.18,966.31,5.86,1.16,1.80,2.13,
05/25/2025,21:18:24.21,-9.77,972.66,-10.74,0.30,3.51,0.24,
05/25/2025,21:18:24.24,-9.77,978.52,16.60,0.58,2.87,0.55,
05/25/2025,21:18:24.26,-0.49,975.10,4.39,-0.27,2.23,-2.26,
05/25/2025,21:18:24.28,-2.93,986.82,4.39,1.13,2.53,2.50,
05/25/2025,21:18:24.30,-18.55,974.12,9.77,0.52,0.88,1.25,
05/25/2025,21:18:24.32,-13.18,979.00,6.84,0.40,2.04,-1.31,
05/25/2025,21:18:24.34,-12.21,974.12,16.60,2.26,1.74,-0.58,
05/25/2025,21:18:24.36,-2.44,980.47,-5.86,1.04,3.29,-0.82,
05/25/2025,21:18:24.38,0.98,973.63,11.72,-0.24,2.53,-0.76,
05/25/2025,21:18:24.40,-16.11,972.17,-4.88,2.44,1.07,1.37,
05/25/2025,21:18:24.42,-8.30,981.45,1.46,0.76,1.77,-2.13,
05/25/2025,21:18:24.44,-14.16,975.10,-2.44,0.67,0.91,2.23,
05/25/2025,21:18:24.46,-10.25,970.70,9.77,1.55,0.58,-0.88,
05/25/2025,21:18:24.48,0.00,972.66,-1.95,1.10,1.74,1.13,
05/25/2025,21:18:24.50,1.46,970.21,0.00,1.92,2.99,0.85,
05/25/2025,21:18:24.52,-4.88,979.00,-0.49,1.86,1.62,0.55,
05/25/2025,21:18:24.54,-23.44,976.07,9.28,0.55,2.47,0.98,
05/25/2025,21:18:24.56,-3.91,981.93,3.42,1.25,3.08,1.01,
05/25/2025,21:18:24.58,-12.70,986.33,9.77,2.50,2.32,-0.64,
05/25/2025,21:18:24.60,-21.48,985.35,1.95,3.08,1.80,0.91,
05/25/2025,21:18:24.62,-3.91,985.84,-3.42,1.43,1.13,0.40,
05/25/2025,21:18:24.67,-4.88,975.59,5.86,1.55,3.05,-1.13,
05/25/2025,21:18:24.69,-4.88,996.58,-3.42,1.95,1.83,0.55,
05/25/2025,21:18:24.71,-1.95,976.07,12.21,3.14,1.71,0.70,
05/25/2025,21:18:24.73,-8.79,984.86,12.21,1.13,0.61,-2.74,
05/25/2025,21:18:24.75,-6.35,976.56,3.91,3.87,2.99,-1.74,
05/25/2025,21:18:24.77,-13.18,985.84,-1.95,2.04,2.87,-2.29,
05/25/2025,21:18:24.79,-2.93,964.36,2.44,0.52,1.52,-2.59,
05/25/2025,21:18:24.81,-9.77,971.19,0.00,1.13,0.55,-1.68,
05/25/2025,21:18:24.83,-24.41,985.84,16.11,2.77,1.19,1.34,
05/25/2025,21:18:24.85,-15.62,989.75,5.86,1.92,1.34,1.37,
05/25/2025,21:18:24.87,-4.88,978.52,0.98,2.90,1.65,-1.46,
05/25/2025,21:18:24.89,-6.35,980.47,-3.91,1.34,2.47,1.77,
05/25/2025,21:18:24.91,-8.79,979.00,8.79,0.61,1.28,-3.45,
05/25/2025,21:18:24.93,-2.93,979.00,-0.49,0.85,2.16,-3.41,
05/25/2025,21:18:24.95,-16.11,980.47,-1.95,1.86,1.49,1.34,
05/25/2025,21:18:24.97,-7.32,983.89,-0.49,0.91,0.37,-1.01,
05/25/2025,21:18:24.99,-15.62,974.12,-2.93,0.64,1.59,-4.12,
05/25/2025,21:18:25.01,-2.44,998.05,10.25,3.63,2.71,-1.89,
05/25/2025,21:18:25.03,-8.79,977.05,-9.77,2.29,3.23,0.06,
05/25/2025,21:18:25.05,-15.62,984.86,6.35,0.21,2.53,-1.01,
05/25/2025,21:18:25.07,-14.16,967.77,-3.91,1.89,0.40,-0.46,
05/25/2025,21:18:25.09,-18.55,971.19,10.25,2.84,1.92,-0.76,
05/25/2025,21:18:25.11,-11.72,979.98,9.28,3.78,2.10,0.46,
05/25/2025,21:18:25.13,0.00,969.24,0.49,0.30,1.95,-1.59,
05/25/2025,21:18:25.18,-17.09,970.70,5.37,1.16,0.21,-1.01,
05/25/2025,21:18:25.20,-9.77,981.93,-4.39,2.90,2.01,0.58,
05/25/2025,21:18:25.22,-14.65,986.82,4.39,-0.79,2.26,-0.30,
05/25/2025,21:18:25.24,-5.37,979.00,-8.30,3.23,-0.03,-0.43,
05/25/2025,21:18:25.26,-21.97,971.19,10.25,0.88,2.87,2.07,
05/25/2025,21:18:25.28,-9.77,991.70,3.91,1.65,2.41,2.35,
05/25/2025,21:18:25.30,2.44,976.07,12.70,1.98,1.80,-2.68,
05/25/2025,21:18:25.32,-4.88,976.07,-5.37,2.07,1.28,-1.13,
05/25/2025,21:18:25.34,-10.74,991.21,12.70,-0.06,2.07,-0.91,
05/25/2025,21:18:25.36,-4.39,972.66,-2.93,2.04,1.37,1.52,
05/25/2025,21:18:25.38,-11.23,993.65,8.30,1.52,2.50,-3.32,
05/25/2025,21:18:25.40,-4.39,977.05,16.11,2.71,1.25,2.29,
05/25/2025,21:18:25.42,-12.70,977.05,-1.46,0.43,-1.01,-0.15,
05/25/2025,21:18:25.44,-1.46,982.42,2.44,1.49,1.59,1.19,
05/25/2025,21:18:25.46,-0.49,985.84,20.02,1.80,0.49,-1.59,
05/25/2025,21:18:25.48,-9.28,970.21,9.28,1.46,2.01,-2.16,
05/25/2025,21:18:25.50,-7.81,977.54,7.32,0.34,0.18,-1.16,
05/25/2025,21:18:25.52,0.00,986.33,-0.98,2.29,3.48,-2.16,
05/25/2025,21:18:25.54,-6.35,981.93,9.28,0.43,1.98,-0.49,
05/25/2025,21:18:25.56,-16.60,982.42,3.42,0.49,2.29,-1.98,
05/25/2025,21:18:25.58,-10.25,979.00,9.28,2.38,2.80,1.31,
05/25/2025,21:18:25.60,-11.72,976.07,9.28,2.50,0.40,0.30,
05/25/2025,21:18:25.62,-8.30,992.68,-1.46,1.98,1.98,-0.34,
05/25/2025,21:18:25.64,-10.74,966.31,14.65,2.47,2.01,-3.72,
05/25/2025,21:18:25.69,-16.60,978.03,8.79,2.62,-0.06,-0.09,
05/25/2025,21:18:25.71,-10.74,966.80,0.00,0.58,0.95,-1.80,
05/25/2025,21:18:25.73,-2.93,965.82,1.46,-0.52,3.54,2.65,
05/25/2025,21:18:25.75,-4.88,982.42,0.00,0.27,1.95,0.79,
05/25/2025,21:18:25.77,-21.97,983.89,7.32,0.64,1.49,1.52,
05/25/2025,21:18:25.79,-13.67,970.70,-4.88,0.49,1.04,-2.01,
05/25/2025,21:18:25.81,-28.32,973.63,14.16,1.95,2.01,0.76,
05/25/2025,21:18:25.83,-9.28,985.84,-4.88,3.69,0.21,1.28,
05/25/2025,21:18:25.85,-6.35,996.09,8.30,1.43,1.52,-2.74,
05/25/2025,21:18:25.87,-9.28,978.03,6.84,2.29,2.62,-2.68,
05/25/2025,21:18:25.89,-9.28,983.89,4.39,3.26,2.23,0.85,
05/25/2025,21:18:25.91,-9.77,992.19,10.25,0.24,2.38,1.65,
05/25/2025,21:18:25.93,2.93,973.14,3.91,-1.04,3.14,1.37,
05/25/2025,21:18:25.95,-18.55,986.82,6.84,-0.52,2.29,0.79,
05/25/2025,21:18:25.97,-7.32,979.49,-7.32,1.25,1.89,0.03,
05/25/2025,21:18:25.99,-17.58,978.52,-0.49,0.98,-0.03,-2.38,
05/25/2025,21:18:26.01,-22.46,993.65,14.65,0.09,0.76,-1.07,
05/25/2025,21:18:26.03,-10.74,957.52,5.86,0.76,2.44,-1.04,
05/25/2025,21:18:26.05,-8.30,979.49,9.77,-1.16,0.18,-1.07,
05/25/2025,21:18:26.07,-6.84,987.30,0.98,0.49,3.45,0.18,
05/25/2025,21:18:26.09,-4.88,986.82,-5.86,2.04,0.70,4.36,
05/25/2025,21:18:26.11,0.98,979.49,-1.95,1.74,0.21,-0.88,
05/25/2025,21:18:26.13,-18.07,977.54,5.37,1.52,1.68,-1.49,
05/25/2025,21:18:26.15,-5.86,979.49,-4.88,2.90,3.14,3.84,
05/25/2025,21:18:26.20,-21.48,985.84,7.81,1.34,2.20,-0.43,
05/25/2025,21:18:26.22,-4.39,980.96,8.79,1.34,0.43,-1.19,
05/25/2025,21:18:26.24,-13.18,978.03,9.28,1.07,-0.67,-1.68,
05/25/2025,21:18:26.26,-16.11,969.24,9.77,3.08,4.18,-1.89,
05/25/2025,21:18:26.28,-17.09,973.14,-2.93,3.60,1.89,0.15,
05/25/2025,21:18:26.30,-3.42,987.79,-8.30,0.52,1.22,-1.22,
05/25/2025,21:18:26.32,-9.28,981.45,4.88,2.16,3.35,-0.55,
05/25/2025,21:18:26.34,-3.91,969.73,6.35,1.01,3.17,0.06,
05/25/2025,21:18:26.36,-5.37,982.91,2.44,1.92,2.23,-1.77,
05/25/2025,21:18:26.38,18.55,993.16,9.77,2.10,2.29,1.46,
05/25/2025,21:18:26.40,-2.93,981.93,-7.32,1.49,1.83,0.95,
05/25/2025,21:18:26.42,-0.98,980.47,2.93,0.15,1.01,0.09,
05/25/2025,21:18:26.44,-16.60,980.47,9.28,2.87,0.09,-0.43,
05/25/2025,21:18:26.46,-9.77,975.59,11.72,1.46,1.25,0.58,
05/25/2025,21:18:26.48,-8.30,980.47,12.21,0.79,2.26,-1.68,
05/25/2025,21:18:26.50,-0.49,979.49,4.88,0.12,2.29,0.85,
05/25/2025,21:18:26.52,3.42,982.42,-8.30,0.49,0.52,-1.22,
05/25/2025,21:18:26.54,4.88,966.80,1.46,3.02,0.67,-0.30,
05/25/2025,21:18:26.56,-5.37,976.56,0.98,0.00,1.68,0.55,
05/25/2025,21:18:26.58,-11.72,974.12,16.11,2.84,1.71,0.37,
05/25/2025,21:18:26.61,-9.28,978.03,19.53,0.98,2.84,-1.68,
05/25/2025,21:18:26.63,-18.07,979.98,8.79,1.80,0.95,0.52,
05/25/2025,21:18:26.65,-11.23,975.10,0.49,0.98,2.59,-2.29,
05/25/2025,21:18:26.67,-3.42,977.54,-7.81,1.92,1.74,4.82,
05/25/2025,21:18:26.71,-3.42,978.52,0.00,1.49,1.98,0.06,
05/25/2025,21:18:26.73,2.93,981.45,7.32,0.73,2.26,1.95,
05/25/2025,21:18:26.76,8.79,984.38,4.88,0.06,1.22,-0.09,
05/25/2025,21:18:26.78,-12.70,983.89,0.98,1.74,3.90,-2.04,
05/25/2025,21:18:26.80,-24.90,974.12,6.35,0.82,1.98,-1.43,
05/25/2025,21:18:26.82,-17.58,979.49,4.39,0.85,1.28,-0.73,
05/25/2025,21:18:26.84,-8.30,976.56,1.95,1.04,1.13,-2.84,
05/25/2025,21:18:26.86,-4.39,982.42,7.32,-0.21,2.77,-0.40,
05/25/2025,21:18:26.88,-18.55,980.96,15.14,3.60,2.07,1.40,
05/25/2025,21:18:26.90,-16.60,983.89,6.35,3.23,1.07,-0.46,
05/25/2025,21:18:26.92,-4.39,978.03,-7.32,0.91,2.44,-1.52,
05/25/2025,21:18:26.94,-13.67,962.40,15.14,0.00,2.84,1.16,
05/25/2025,21:18:26.96,-11.72,988.77,19.53,2.56,1.62,-0.88,
05/25/2025,21:18:26.98,-10.25,967.29,12.70,1.10,1.83,1.34,
05/25/2025,21:18:27.00,-4.39,966.80,17.09,1.89,0.30,0.12,
05/25/2025,21:18:27.02,-12.21,972.17,2.93,2.16,1.59,-0.85,
05/25/2025,21:18:27.04,-9.28,973.63,6.35,3.02,1.71,1.04,
05/25/2025,21:18:27.06,-10.74,975.59,0.98,3.26,1.01,2.62,
05/25/2025,21:18:27.08,-7.81,985.35,-0.98,1.19,4.02,-0.98,
05/25/2025,21:18:27.10,2.44,980.47,5.86,2.41,2.56,0.46,
05/25/2025,21:18:27.12,-7.81,976.56,9.77,1.49,1.98,-1.74,
05/25/2025,21:18:27.14,-6.84,968.75,6.84,1.80,1.28,1.68,
05/25/2025,21:18:27.16,-14.65,969.73,3.42,2.65,1.01,0.30,
05/25/2025,21:18:27.18,-16.60,985.84,16.11,3.05,0.00,-1.62,
05/25/2025,21:18:27.23,-21.97,958.50,14.16,0.46,1.95,0.73,
05/25/2025,21:18:27.25,-5.37,973.14,0.00,1.80,2.96,-3.84,
05/25/2025,21:18:27.27,-12.70,980.47,5.86,1.59,3.05,1.01,
05/25/2025,21:18:27.29,-19.04,981.93,22.95,1.16,3.57,-2.32,
05/25/2025,21:18:27.31,-11.72,976.07,1.46,0.88,2.59,2.10,
05/25/2025,21:18:27.33,-20.02,932.13,6.35,1.22,3.51,-1.31,
05/25/2025,21:18:27.35,1.95,968.26,-7.32,1.40,1.65,-1.83,
05/25/2025,21:18:27.37,-4.39,1036.13,56.15,-0.15,2.44,0.30,
05/25/2025,21:18:27.39,-26.86,980.96,-21.00,-0.67,2.59,2.71,
05/25/2025,21:18:27.41,-2.93,985.35,1.46,1.98,3.45,-0.64,
05/25/2025,21:18:27.43,-8.30,981.93,-1.46,1.74,1.40,-1.68,
05/25/2025,21:18:27.45,-7.81,979.98,12.21,0.03,2.23,-0.61,
05/25/2025,21:18:27.47,-11.23,971.68,-4.88,2.01,1.80,0.34,
05/25/2025,21:18:27.49,-11.72,985.35,1.95,0.37,1.65,-4.48,
05/25/2025,21:18:27.51,-15.14,979.49,16.60,2.41,1.13,0.09,
05/25/2025,21:18:27.53,-13.18,970.21,14.65,2.77,-0.73,3.84,
05/25/2025,21:18:27.55,-15.62,988.28,12.70,1.43,1.49,-1.13,
05/25/2025,21:18:27.57,-15.14,983.40,7.32,0.98,1.55,-0.43,
05/25/2025,21:18:27.59,-6.84,981.93,9.28,1.52,2.93,-2.59,
05/25/2025,21:18:27.61,-12.21,977.54,8.79,1.37,1.80,-2.16,
05/25/2025,21:18:27.63,-3.91,980.47,-3.42,2.04,1.22,-2.84,
05/25/2025,21:18:27.65,-14.16,978.52,0.00,1.80,3.54,0.06,
05/25/2025,21:18:27.67,-9.28,976.56,4.88,1.59,-0.15,1.13,
05/25/2025,21:18:27.69,-4.88,978.03,2.93,1.92,0.95,-2.07,
05/25/2025,21:18:27.77,-17.09,976.56,1.95,2.68,-0.52,-0.88,
05/25/2025,21:18:27.79,-6.84,972.17,2.93,0.40,2.32,4.33,
05/25/2025,21:18:27.81,-9.77,990.72,7.32,2.62,3.05,-0.49,
05/25/2025,21:18:27.83,-8.30,979.49,4.39,-0.34,3.08,-0.73,
05/25/2025,21:18:27.85,-1.46,980.96,-7.81,1.55,4.57,2.99,
05/25/2025,21:18:27.87,6.35,972.66,5.37,1.59,-0.27,1.65,
05/25/2025,21:18:27.89,-14.65,979.00,6.35,0.52,1.34,2.38,
05/25/2025,21:18:27.91,-13.18,983.40,14.16,0.95,-0.06,1.65,
05/25/2025,21:18:27.93,-5.37,989.26,9.28,3.87,0.73,1.74,
05/25/2025,21:18:27.95,-14.65,987.79,1.46,1.28,3.78,0.58,
05/25/2025,21:18:27.97,-19.53,978.52,15.14,-0.21,3.75,-0.88,
05/25/2025,21:18:27.99,-14.65,975.10,3.42,2.29,1.74,1.28,
05/25/2025,21:18:28.01,-11.72,973.63,-1.95,1.89,1.83,0.27,
05/25/2025,21:18:28.03,-19.04,987.30,13.67,1.25,1.46,0.61,
05/25/2025,21:18:28.05,-14.65,987.30,5.86,3.29,3.99,-2.80,
05/25/2025,21:18:28.07,-3.42,974.12,1.46,0.82,1.89,1.04,
05/25/2025,21:18:28.09,-6.84,978.03,9.28,1.92,0.55,-1.31,
05/25/2025,21:18:28.11,-4.88,974.61,3.91,0.79,2.10,0.03,
05/25/2025,21:18:28.13,-8.30,986.82,3.91,0.64,0.24,-0.43,
05/25/2025,21:18:28.15,1.95,978.52,10.74,3.96,1.16,4.39,
05/25/2025,21:18:28.17,-14.16,987.30,8.79,0.24,-0.09,0.00,
05/25/2025,21:18:28.19,-1.46,981.93,9.28,2.62,0.82,-3.96,
05/25/2025,21:18:28.21,-4.88,982.91,-4.39,2.56,1.68,-0.67,
05/25/2025,21:18:28.26,-7.32,978.52,4.88,0.15,3.96,-0.85,
05/25/2025,21:18:28.28,-13.18,978.03,-1.46,1.34,3.32,0.09,
05/25/2025,21:18:28.30,-5.86,979.00,15.62,2.23,0.43,-0.43,
05/25/2025,21:18:28.32,-20.02,975.10,10.74,0.43,1.01,-3.26,
05/25/2025,21:18:28.34,0.49,959.47,-7.32,0.70,2.99,1.52,
05/25/2025,21:18:28.36,-0.98,972.17,1.95,1.43,4.73,-3.20,
05/25/2025,21:18:28.38,1.46,975.10,5.37,1.43,3.90,-1.16,
05/25/2025,21:18:28.40,-26.86,973.14,-0.49,2.35,4.70,-8.72,
05/25/2025,21:18:28.42,-9.77,959.47,14.65,6.71,5.52,-18.78,
05/25/2025,21:18:28.44,-17.58,968.75,-36.13,6.92,10.40,-29.73,
05/25/2025,21:18:28.46,41.02,964.36,-59.08,1.22,7.99,-44.94,
05/25/2025,21:18:28.48,21.00,794.92,-230.96,9.91,5.95,-69.30,
05/25/2025,21:18:28.50,34.18,1032.23,16.60,20.67,39.85,-67.26,
05/25/2025,21:18:28.52,-129.39,1033.20,-68.36,15.37,56.49,-65.64,
05/25/2025,21:18:28.54,-82.03,1094.73,92.77,39.73,69.33,-73.99,
05/25/2025,21:18:28.56,-168.95,1654.30,-299.80,66.01,50.67,-86.43,
05/25/2025,21:18:28.58,-154.30,1012.21,-156.74,44.33,29.33,-83.38,
05/25/2025,21:18:28.60,-173.34,1044.92,-51.76,10.82,-7.20,-61.77,
05/25/2025,21:18:28.62,-256.35,1060.06,-193.36,32.35,-0.73,-65.49,
05/25/2025,21:18:28.64,-325.20,1082.03,-167.97,43.66,-4.97,-85.58,
05/25/2025,21:18:28.66,-224.61,1022.46,-148.93,58.08,11.95,-100.46,
05/25/2025,21:18:28.68,-211.91,791.50,-146.00,26.37,-15.12,-78.26,
05/25/2025,21:18:28.70,-462.40,729.98,-46.39,27.04,-23.93,-57.87,
05/25/2025,21:18:28.72,-340.33,941.41,-232.91,34.79,-52.65,-60.49,
05/25/2025,21:18:28.77,-282.23,825.68,17.09,96.16,34.54,-92.50,
05/25/2025,21:18:28.79,-531.74,808.59,-88.38,88.45,28.23,-93.11,
05/25/2025,21:18:28.81,-514.16,905.27,-277.34,67.90,1.22,-83.96,
05/25/2025,21:18:28.83,-442.87,824.71,-397.95,62.80,-3.51,-100.88,
05/25/2025,21:18:28.85,-474.61,807.13,-418.46,73.57,-6.10,-102.62,
05/25/2025,21:18:28.87,-526.37,851.56,-372.07,62.44,-7.71,-108.78,
05/25/2025,21:18:28.89,-479.98,685.55,-460.45,36.68,-17.47,-106.65,
05/25/2025,21:18:28.91,-539.55,622.56,-457.52,46.34,-57.07,-88.93,
05/25/2025,21:18:28.93,-574.22,611.82,-346.19,34.45,-66.37,-93.11,
05/25/2025,21:18:28.95,-612.79,594.24,-354.98,28.66,-97.62,-93.51,
05/25/2025,21:18:28.97,-590.33,618.16,-357.91,33.08,-70.79,-95.52,
05/25/2025,21:18:28.99,-732.42,637.21,-229.98,39.42,-62.16,-118.93,
05/25/2025,21:18:29.01,-692.38,616.21,-287.11,33.66,-63.14,-134.85,
05/25/2025,21:18:29.03,-835.45,627.44,-176.27,20.85,-59.39,-117.07,
05/25/2025,21:18:29.05,-861.33,644.04,26.37,27.90,-45.18,-114.79,
05/25/2025,21:18:29.07,-848.63,492.19,-101.07,15.18,-41.98,-113.93,
05/25/2025,21:18:29.09,-894.53,358.89,-265.14,29.85,27.87,-103.32,
05/25/2025,21:18:29.11,-785.64,396.00,-233.89,31.49,52.59,-89.02,
05/25/2025,21:18:29.13,-879.39,363.28,-141.11,30.73,41.89,-89.05,
05/25/2025,21:18:29.15,-873.54,330.57,-54.69,1.07,13.08,-100.55,
05/25/2025,21:18:29.17,-946.78,383.79,-14.16,-7.38,-47.26,-90.95,
05/25/2025,21:18:29.19,-966.80,320.80,-163.57,-5.34,-50.03,-48.63,
05/25/2025,21:18:29.21,-932.62,292.48,-244.63,35.21,-2.99,-31.07,
05/25/2025,21:18:29.23,-923.83,229.49,-329.10,20.70,4.42,-43.32,
05/25/2025,21:18:29.28,-806.64,166.50,-379.39,-8.84,-53.63,-32.10,
05/25/2025,21:18:29.30,-902.83,188.96,-408.69,3.08,-73.48,-23.57,
05/25/2025,21:18:29.32,-941.41,236.33,-325.20,12.50,-43.57,-24.36,
05/25/2025,21:18:29.34,-930.18,222.17,-258.79,11.77,-52.01,-24.63,
05/25/2025,21:18:29.36,-901.37,218.75,-219.73,13.14,-58.48,-21.74,
05/25/2025,21:18:29.38,-939.45,207.52,-16.11,9.73,-87.90,-23.99,
05/25/2025,21:18:29.40,-1104.49,291.50,254.39,-6.28,-149.39,-32.68,
05/25/2025,21:18:29.42,-839.36,268.55,220.70,-42.20,-128.08,-35.40,
05/25/2025,21:18:29.44,-944.34,166.50,191.89,-53.57,-103.41,-41.62,
05/25/2025,21:18:29.46,-932.62,136.72,122.07,-71.62,-122.04,-45.49,
05/25/2025,21:18:29.48,-939.45,107.91,189.94,-76.98,-124.18,-50.73,
05/25/2025,21:18:29.50,-947.27,-16.60,97.66,-78.51,-122.20,-54.48,
05/25/2025,21:18:29.52,-929.69,126.95,106.93,-76.52,-160.61,-35.27,
05/25/2025,21:18:29.54,-912.11,33.69,101.07,-53.08,-129.18,-39.15,
05/25/2025,21:18:29.56,-993.65,46.88,315.92,-44.60,-78.26,-49.79,
05/25/2025,21:18:29.58,-977.54,29.30,395.02,-44.76,-52.65,-63.17,
05/25/2025,21:18:29.60,-916.50,-69.82,308.11,-40.64,-28.05,-61.46,
05/25/2025,21:18:29.62,-933.11,-81.05,339.36,-20.27,-17.10,-47.32,
05/25/2025,21:18:29.64,-929.20,-105.47,419.92,-12.32,-14.76,-51.49,
05/25/2025,21:18:29.66,-801.27,-228.52,420.90,5.03,60.98,-16.59,
05/25/2025,21:18:29.68,-889.65,-127.44,500.98,5.82,11.86,-11.07,
05/25/2025,21:18:29.70,-945.31,-95.21,488.28,3.84,10.18,-8.11,
05/25/2025,21:18:29.72,-884.77,-128.91,442.38,3.17,22.01,-1.25,
05/25/2025,21:18:29.75,-977.05,-100.10,411.13,-2.50,23.45,-12.68,
05/25/2025,21:18:29.80,-927.73,-70.31,401.37,-29.39,9.33,-36.16,
05/25/2025,21:18:29.82,-959.96,-179.20,282.23,-53.38,-1.65,-54.51,
05/25/2025,21:18:29.84,-1023.93,-129.88,308.11,-62.84,7.65,-73.41,
05/25/2025,21:18:29.86,-696.29,-260.25,156.74,-39.18,43.26,-57.01,
05/25/2025,21:18:29.88,-1131.84,-542.48,288.57,-39.27,49.88,-62.23,
05/25/2025,21:18:29.90,-1100.59,-226.07,299.80,-26.01,11.68,-49.97,
05/25/2025,21:18:29.92,-910.16,-112.30,307.62,-6.19,-19.42,-41.55,
05/25/2025,21:18:29.95,-885.74,-170.41,330.08,-13.72,-52.50,-40.85,
05/25/2025,21:18:29.97,-766.60,-243.65,251.46,-2.01,-64.42,-7.04,
05/25/2025,21:18:29.99,-817.38,-346.19,274.41,18.38,-50.76,10.15,
05/25/2025,21:18:30.01,-850.10,-194.82,319.34,28.35,-46.92,26.13,
05/25/2025,21:18:30.03,-863.77,-271.48,385.25,29.27,-44.36,35.64,
05/25/2025,21:18:30.05,-850.59,-228.03,383.30,26.49,-48.14,36.43,
05/25/2025,21:18:30.07,-902.34,-185.55,382.81,30.03,-43.63,36.16,
05/25/2025,21:18:30.09,-939.45,-187.99,395.02,31.80,-32.74,38.60,
05/25/2025,21:18:30.11,-929.20,-331.54,421.88,18.14,-17.20,28.93,
05/25/2025,21:18:30.13,-892.09,-423.83,431.64,7.13,-7.74,13.20,
05/25/2025,21:18:30.15,-886.23,-291.02,367.68,-6.37,-1.25,1.49,
05/25/2025,21:18:30.17,-819.82,-224.12,405.76,-2.07,10.24,14.79,
05/25/2025,21:18:30.19,-787.11,-242.68,370.12,4.21,28.29,17.26,
05/25/2025,21:18:30.21,-872.07,-259.77,446.29,19.42,25.88,12.99,
05/25/2025,21:18:30.23,-813.48,-201.17,359.86,32.53,30.73,8.81,
05/25/2025,21:18:30.25,-847.66,-171.39,329.10,48.17,44.05,10.61,
05/25/2025,21:18:30.27,-877.44,-105.96,369.14,68.75,52.53,2.50,
05/25/2025,21:18:30.32,-926.76,-49.32,348.14,95.76,48.75,23.48,
05/25/2025,21:18:30.34,-878.42,90.82,245.61,89.97,49.66,17.20,
05/25/2025,21:18:30.36,-941.41,-140.62,330.57,107.87,50.95,-21.68,
05/25/2025,21:18:30.38,-938.48,41.99,282.71,119.70,38.63,-58.32,
05/25/2025,21:18:30.40,-990.72,60.06,330.57,81.83,42.35,-54.05,
05/25/2025,21:18:30.42,-1067.38,62.99,282.71,62.13,29.70,-46.89,
05/25/2025,21:18:30.44,-958.98,64.94,292.97,44.02,25.64,-24.73,
05/25/2025,21:18:30.46,-1185.06,6.35,161.13,-26.04,55.91,77.74,
05/25/2025,21:18:30.48,-945.31,-104.98,147.46,-3.63,81.77,67.90,
05/25/2025,21:18:30.50,-1146.00,-10.74,400.88,12.47,68.48,44.79,
05/25/2025,21:18:30.52,-1088.38,-68.36,138.67,-19.21,61.83,7.59,
05/25/2025,21:18:30.54,-952.64,-113.28,-131.35,6.31,38.96,8.32,
05/25/2025,21:18:30.56,-985.35,-27.34,-19.53,-21.80,42.71,15.00,
05/25/2025,21:18:30.58,-1030.27,10.74,221.68,-34.94,26.95,28.38,
05/25/2025,21:18:30.60,-1046.39,0.00,133.79,-3.26,14.39,14.09,
05/25/2025,21:18:30.62,-976.56,-16.11,166.50,1.10,18.60,20.06,
05/25/2025,21:18:30.64,-1000.98,1.46,137.21,6.04,8.35,8.99,
05/25/2025,21:18:30.66,-1059.08,-15.62,129.39,2.04,4.30,-1.01,
05/25/2025,21:18:30.68,-1023.44,4.39,83.50,-11.77,14.09,-16.01,
05/25/2025,21:18:30.70,-1066.41,23.44,140.62,-18.93,4.30,-29.15,
05/25/2025,21:18:30.72,-1054.69,27.83,175.29,-17.71,5.37,-46.95,
05/25/2025,21:18:30.74,-1025.88,-0.98,143.55,-8.02,5.55,-45.85,
05/25/2025,21:18:30.76,-1036.62,-76.66,116.70,6.71,0.73,-54.30,
05/25/2025,21:18:30.78,-1000.49,-173.83,157.71,7.93,13.75,-84.79,
05/25/2025,21:18:30.83,-994.63,-149.41,172.36,2.50,10.06,-71.62,
05/25/2025,21:18:30.85,-1008.30,-162.60,143.55,-0.03,-0.79,-86.07,
05/25/2025,21:18:30.87,-1036.13,-251.46,121.09,0.76,-12.07,-91.77,
05/25/2025,21:18:30.89,-984.38,-254.39,166.50,3.05,-22.01,-101.19,
05/25/2025,21:18:30.91,-1018.55,-261.72,174.32,5.55,-20.12,-123.99,
05/25/2025,21:18:30.93,-979.98,-306.64,152.83,-0.12,-8.14,-144.91,
05/25/2025,21:18:30.95,-974.12,-318.36,154.79,-18.60,63.05,-166.89,
05/25/2025,21:18:30.97,-818.85,-464.36,71.29,-56.92,0.91,-133.66,
05/25/2025,21:18:30.99,-882.81,-438.48,426.27,-98.60,53.69,-116.59,
05/25/2025,21:18:31.01,-896.00,-537.60,185.55,-65.03,131.43,-101.77,
05/25/2025,21:18:31.03,-965.82,-515.14,309.57,17.04,343.35,-101.98,
05/25/2025,21:18:31.05,-697.27,-560.06,-116.21,10.34,208.26,-46.95,
05/25/2025,21:18:31.07,-840.33,-548.83,-59.57,-40.49,130.73,-26.07,
05/25/2025,21:18:31.09,-1005.37,-606.45,-263.67,-19.48,199.36,-75.49,
05/25/2025,21:18:31.11,-770.02,-559.08,-237.30,-17.74,122.07,-69.24,
05/25/2025,21:18:31.13,-812.01,-637.70,-301.76,-5.61,237.80,-86.04,
05/25/2025,21:18:31.15,-539.06,-595.21,-410.16,19.97,215.76,-73.75,
05/25/2025,21:18:31.17,-689.45,-692.38,-367.68,-7.74,196.43,-41.83,
05/25/2025,21:18:31.19,-566.41,-607.91,-346.19,-33.26,117.07,-7.50,
05/25/2025,21:18:31.21,-497.07,-538.57,-444.34,-64.21,138.45,12.10,
05/25/2025,21:18:31.23,-570.80,-591.31,-553.71,-91.92,103.02,4.21,
05/25/2025,21:18:31.25,-557.13,-564.45,-598.14,-118.57,126.98,-7.90,
05/25/2025,21:18:31.27,-547.36,-562.99,-685.06,-148.99,147.38,-15.09,
05/25/2025,21:18:31.29,-513.18,-567.38,-695.31,-124.76,81.86,-8.26,
05/25/2025,21:18:31.34,-499.02,-475.59,-834.96,-104.57,143.69,-20.18,
05/25/2025,21:18:31.36,-439.94,-437.01,-875.00,-90.58,104.91,-15.00,
05/25/2025,21:18:31.38,-396.00,-426.76,-808.11,-85.21,91.74,-9.79,
05/25/2025,21:18:31.40,-353.52,-427.73,-831.54,-75.30,58.87,2.07,
05/25/2025,21:18:31.42,-401.37,-404.79,-802.25,-69.76,-15.79,22.99,
05/25/2025,21:18:31.44,-376.95,-311.04,-869.14,-81.37,-86.80,28.78,
05/25/2025,21:18:31.46,-416.02,-324.71,-937.99,-94.42,-35.49,33.32,
05/25/2025,21:18:31.48,-457.52,-478.52,-1528.32,4.51,106.19,81.16,
05/25/2025,21:18:31.50,-189.45,-278.32,-789.55,-8.20,30.52,61.43,
05/25/2025,21:18:31.52,-297.85,-318.36,-880.37,0.88,34.09,38.11,
05/25/2025,21:18:31.54,-391.60,-276.86,-626.95,11.98,-7.16,49.33,
05/25/2025,21:18:31.56,-490.72,-324.22,-696.29,-39.79,-15.43,20.21,
05/25/2025,21:18:31.58,-454.10,-323.24,-838.87,-38.26,13.93,13.75,
05/25/2025,21:18:31.60,-404.79,-298.34,-865.72,-15.15,22.87,13.14,
05/25/2025,21:18:31.62,-392.09,-286.13,-915.53,-10.49,22.53,13.08,
05/25/2025,21:18:31.64,-405.27,-263.67,-917.48,-6.46,14.76,10.30,
05/25/2025,21:18:31.66,-368.65,-264.65,-931.64,4.70,55.88,11.55,
05/25/2025,21:18:31.68,-366.70,-263.18,-955.08,16.37,48.41,15.58,
05/25/2025,21:18:31.70,-341.31,-249.02,-967.77,24.54,36.83,17.50,
05/25/2025,21:18:31.72,-333.01,-261.23,-880.86,7.16,41.86,13.05,
05/25/2025,21:18:31.74,-352.05,-278.81,-886.72,4.76,44.73,13.78,
05/25/2025,21:18:31.76,-297.85,-283.20,-887.70,4.97,56.07,11.49,
05/25/2025,21:18:31.78,-296.39,-261.72,-967.29,10.98,67.35,7.62,
05/25/2025,21:18:31.80,-287.11,-270.51,-968.75,12.10,50.24,0.67,
05/25/2025,21:18:31.85,-252.44,-287.60,-972.66,26.46,46.34,7.62,
05/25/2025,21:18:31.87,-225.10,-307.62,-941.89,30.27,40.46,4.15,
05/25/2025,21:18:31.89,-201.66,-293.95,-938.96,35.79,36.65,4.39,
05/25/2025,21:18:31.91,-201.66,-323.73,-930.18,31.92,24.76,4.48,
05/25/2025,21:18:31.93,-203.61,-286.13,-881.35,32.29,7.68,5.15,
05/25/2025,21:18:31.95,-204.59,-309.57,-913.57,23.29,22.56,6.95,
05/25/2025,21:18:31.97,-179.20,-326.66,-924.80,24.66,5.37,2.90,
05/25/2025,21:18:31.99,-132.32,-325.20,-975.10,34.42,10.49,4.73,
05/25/2025,21:18:32.01,-244.14,-374.51,-859.86,41.71,-7.77,7.38,
05/25/2025,21:18:32.03,-235.84,-358.89,-908.20,42.59,-53.32,0.03,
05/25/2025,21:18:32.05,-144.04,-360.84,-920.41,39.09,-22.01,-3.54,
05/25/2025,21:18:32.07,-179.69,-355.96,-953.61,31.95,-13.90,2.74,
05/25/2025,21:18:32.09,-267.58,-397.46,-929.20,27.59,-18.02,8.11,
05/25/2025,21:18:32.11,-218.26,-386.72,-918.95,18.63,-10.61,8.54,
05/25/2025,21:18:32.13,-310.55,-432.62,-835.45,10.82,-14.27,3.90,
05/25/2025,21:18:32.15,-299.80,-446.29,-855.47,2.16,-36.83,11.16,
05/25/2025,21:18:32.17,-269.04,-391.11,-889.16,8.32,-15.85,15.67,
05/25/2025,21:18:32.19,-273.44,-403.81,-924.80,1.98,0.30,11.19,
05/25/2025,21:18:32.21,-284.18,-404.79,-937.01,10.43,-5.34,9.30,
05/25/2025,21:18:32.23,-282.71,-431.15,-906.74,20.91,18.29,9.45,
05/25/2025,21:18:32.25,-299.80,-426.27,-875.98,31.04,2.35,14.05,
05/25/2025,21:18:32.27,-290.53,-434.08,-843.75,31.80,-26.68,18.38,
05/25/2025,21:18:32.29,-301.27,-452.15,-877.93,37.90,-34.63,10.64,
05/25/2025,21:18:32.31,-300.78,-448.73,-865.23,41.71,-40.46,5.46,
05/25/2025,21:18:32.36,-333.50,-508.30,-896.48,35.37,-16.40,-3.84,
05/25/2025,21:18:32.38,-328.61,-466.80,-827.64,38.48,-20.61,-4.97,
05/25/2025,21:18:32.40,-352.05,-499.51,-810.55,23.32,-0.06,-2.96,
05/25/2025,21:18:32.42,-323.73,-505.86,-800.29,26.74,-4.05,1.31,
05/25/2025,21:18:32.44,-318.36,-487.79,-798.83,31.43,-3.08,-0.64,
05/25/2025,21:18:32.46,-320.31,-513.18,-837.40,37.53,0.30,3.38,
05/25/2025,21:18:32.48,-351.07,-538.09,-845.70,40.34,-13.72,14.39,
05/25/2025,21:18:32.50,-361.82,-534.67,-814.45,41.25,-31.95,21.40,
05/25/2025,21:18:32.52,-364.26,-542.97,-711.91,29.45,-18.51,13.84,
05/25/2025,21:18:32.54,-389.65,-569.34,-747.56,18.81,-16.98,7.87,
05/25/2025,21:18:32.56,-377.93,-564.45,-730.47,24.79,-36.28,4.18,
05/25/2025,21:18:32.58,-391.11,-548.34,-733.89,31.19,-53.99,6.28,
05/25/2025,21:18:32.61,-407.23,-557.62,-729.00,37.90,-57.04,7.35,
05/25/2025,21:18:32.63,-436.04,-563.48,-698.24,33.14,-73.45,3.84,
05/25/2025,21:18:32.65,-442.87,-582.03,-730.47,37.77,-58.14,-1.43,
05/25/2025,21:18:32.67,-481.93,-603.52,-704.10,38.02,-57.87,-1.74,
05/25/2025,21:18:32.69,-527.34,-604.00,-675.29,48.38,-56.86,11.43,
05/25/2025,21:18:32.71,-495.12,-592.29,-615.72,47.23,-54.79,14.21,
05/25/2025,21:18:32.73,-517.58,-637.21,-595.70,33.63,-70.70,11.62,
05/25/2025,21:18:32.75,-532.23,-613.77,-631.84,44.02,-103.93,3.90,
05/25/2025,21:18:32.77,-540.04,-623.54,-604.49,48.32,-80.21,2.59,
05/25/2025,21:18:32.79,-572.75,-648.93,-573.73,49.91,-60.49,3.17,
05/25/2025,21:18:32.81,-590.33,-657.71,-551.76,44.51,-37.04,0.76,
05/25/2025,21:18:32.83,-562.99,-664.55,-528.32,61.07,-31.80,4.51,
05/25/2025,21:18:32.88,-655.27,-683.11,-560.55,64.76,17.38,0.82,
05/25/2025,21:18:32.90,-592.77,-672.36,-416.99,66.31,7.65,5.43,
05/25/2025,21:18:32.92,-572.27,-680.18,-397.46,44.91,47.26,7.13,
05/25/2025,21:18:32.94,-563.96,-699.22,-445.31,29.09,48.17,3.69,
05/25/2025,21:18:32.96,-536.13,-695.31,-496.09,54.12,100.18,5.43,
05/25/2025,21:18:32.98,-500.98,-712.40,-397.95,40.03,105.73,22.50,
05/25/2025,21:18:33.00,-554.20,-684.08,-430.66,24.39,111.55,27.74,
05/25/2025,21:18:33.02,-578.12,-700.68,-430.66,16.74,94.70,34.39,
05/25/2025,21:18:33.04,-597.17,-710.45,-479.00,21.04,82.53,35.76,
05/25/2025,21:18:33.06,-544.92,-695.31,-491.21,17.32,67.84,26.62,
05/25/2025,21:18:33.08,-561.52,-709.47,-511.72,-4.70,89.02,23.26,
05/25/2025,21:18:33.10,-514.65,-687.99,-579.10,-8.11,83.32,30.09,
05/25/2025,21:18:33.12,-461.43,-690.43,-659.67,13.45,94.94,32.16,
05/25/2025,21:18:33.14,-519.53,-673.34,-586.43,28.69,78.81,22.90,
05/25/2025,21:18:33.16,-464.84,-625.98,-535.16,29.12,57.74,27.53,
05/25/2025,21:18:33.18,-462.40,-681.15,-638.67,32.10,82.59,33.93,
05/25/2025,21:18:33.20,-491.21,-678.22,-565.43,37.68,74.30,29.09,
05/25/2025,21:18:33.22,-504.39,-625.98,-535.16,43.51,65.03,17.41,
05/25/2025,21:18:33.24,-461.43,-693.85,-542.97,45.82,58.87,2.53,
05/25/2025,21:18:33.26,-424.80,-687.01,-584.47,35.18,43.23,4.39,
05/25/2025,21:18:33.28,-475.10,-705.57,-556.15,29.94,29.73,-0.61,
05/25/2025,21:18:33.30,-435.06,-730.47,-692.38,23.87,38.75,-6.65,
05/25/2025,21:18:33.32,-415.04,-730.96,-610.84,19.15,40.52,-9.66,
05/25/2025,21:18:33.34,-420.90,-732.42,-551.76,18.72,46.28,-17.26,
05/25/2025,21:18:33.40,-440.43,-754.88,-623.05,22.23,125.61,-32.84,
05/25/2025,21:18:33.42,-330.57,-731.93,-805.66,36.34,146.40,-31.04,
05/25/2025,21:18:33.44,-268.55,-755.37,-1037.60,54.09,192.90,-27.59,
05/25/2025,21:18:33.46,-265.62,-763.18,-495.12,45.24,148.08,-20.64,
05/25/2025,21:18:33.48,-287.11,-765.62,-670.90,34.21,117.13,-11.95,
05/25/2025,21:18:33.50,-140.14,-829.59,-690.43,50.03,189.15,-21.55,
05/25/2025,21:18:33.52,-96.19,-765.14,-644.53,43.66,195.70,-25.98,
05/25/2025,21:18:33.54,-59.08,-809.08,-604.98,69.79,124.70,-56.89,
05/25/2025,21:18:33.56,45.90,-802.25,-562.01,50.95,147.56,-43.08,
05/25/2025,21:18:33.58,17.58,-834.47,-675.78,52.38,138.54,-33.84,
05/25/2025,21:18:33.60,1125.00,-311.52,250.98,73.35,306.65,18.17,
05/25/2025,21:18:33.62,356.93,-810.55,-1123.05,64.94,195.76,-33.45,
05/25/2025,21:18:33.64,115.23,-836.91,-285.16,24.85,156.80,5.09,
05/25/2025,21:18:33.66,101.56,-875.00,-358.40,13.78,88.51,25.76,
05/25/2025,21:18:33.68,223.14,-941.41,-620.61,11.92,115.55,22.47,
05/25/2025,21:18:33.70,220.70,-878.42,-497.07,15.58,116.74,18.93,
05/25/2025,21:18:33.72,227.54,-892.09,-479.00,26.74,89.66,22.50,
05/25/2025,21:18:33.74,190.92,-893.55,-510.25,36.22,107.16,23.11,
05/25/2025,21:18:33.76,120.61,-888.67,-474.12,41.59,125.21,14.79,
05/25/2025,21:18:33.78,57.13,-873.05,-453.12,51.22,120.24,9.51,
05/25/2025,21:18:33.80,4.88,-833.50,-391.11,51.95,115.82,-16.49,
05/25/2025,21:18:33.82,27.83,-823.73,-353.52,66.01,129.85,-34.85,
05/25/2025,21:18:33.84,437.01,-1083.01,-706.54,143.35,73.08,115.03,
05/25/2025,21:18:33.86,398.93,-935.55,-356.45,91.07,91.04,25.76,
05/25/2025,21:18:33.91,143.07,-835.45,-158.20,67.07,208.78,108.93,
05/25/2025,21:18:33.93,223.63,-956.54,45.41,37.13,153.14,87.32,
05/25/2025,21:18:33.95,187.01,-963.87,-183.11,3.81,98.32,112.65,
05/25/2025,21:18:33.97,127.93,-916.50,-207.52,42.47,93.60,77.13,
05/25/2025,21:18:33.99,-2.93,-972.17,-149.90,32.44,83.45,50.49,
05/25/2025,21:18:34.01,34.67,-1000.00,-95.70,18.57,70.06,54.54,
05/25/2025,21:18:34.03,81.54,-1054.69,-79.59,-2.87,38.08,69.02,
05/25/2025,21:18:34.05,70.31,-996.58,-193.85,-2.07,47.65,59.45,
05/25/2025,21:18:34.07,119.63,-1031.74,-130.86,-23.84,68.35,60.46,
05/25/2025,21:18:34.09,150.88,-1068.36,-73.73,-42.71,60.52,39.02,
05/25/2025,21:18:34.11,66.89,-990.72,-161.62,-23.75,45.46,12.26,
05/25/2025,21:18:34.13,92.29,-1083.98,-206.54,39.91,92.04,-7.44,
05/25/2025,21:18:34.15,108.89,-1135.25,-38.57,17.99,76.07,4.12,
05/25/2025,21:18:34.17,107.91,-1124.51,-28.81,3.72,53.26,-3.38,
05/25/2025,21:18:34.19,120.61,-1059.08,-80.08,93.05,56.68,-85.70,
05/25/2025,21:18:34.21,139.65,-922.85,-155.76,83.72,64.15,-70.40,
05/25/2025,21:18:34.23,-81.54,-1068.36,130.86,81.89,97.80,-63.66,
05/25/2025,21:18:34.25,120.12,-1030.27,-46.39,32.04,76.04,-4.66,
05/25/2025,21:18:34.27,53.22,-893.55,-2.44,100.30,123.32,-30.09,
05/25/2025,21:18:34.29,166.99,-1063.96,136.23,120.34,123.63,-30.00,
05/25/2025,21:18:34.31,169.43,-1080.57,-35.64,139.85,127.01,-51.10,
05/25/2025,21:18:34.33,302.25,-861.82,207.52,151.07,165.58,-71.04,
05/25/2025,21:18:34.35,338.87,-821.29,81.05,157.50,199.15,-23.60,
05/25/2025,21:18:34.37,185.06,-913.57,312.01,192.62,207.16,-28.69,
05/25/2025,21:18:34.42,143.55,-870.61,608.40,91.68,48.48,8.11,
05/25/2025,21:18:34.44,136.72,-941.41,654.30,59.63,61.43,14.97,
05/25/2025,21:18:34.46,-22.95,-847.66,377.44,56.86,55.21,10.98,
05/25/2025,21:18:34.48,44.43,-858.40,500.98,64.85,32.53,-7.53,
05/25/2025,21:18:34.50,31.25,-827.64,414.06,100.24,68.26,-21.74,
05/25/2025,21:18:34.52,21.97,-859.38,554.20,122.53,64.33,-33.78,
05/25/2025,21:18:34.54,58.11,-856.45,714.36,99.97,40.70,-25.06,
05/25/2025,21:18:34.56,24.90,-797.85,731.45,52.10,-7.07,-40.37,
05/25/2025,21:18:34.58,448.24,-720.70,725.59,90.67,-33.72,-25.91,
05/25/2025,21:18:34.60,64.94,-734.86,611.82,125.27,-27.29,0.55,
05/25/2025,21:18:34.62,54.69,-712.40,709.47,70.34,-36.04,8.51,
05/25/2025,21:18:34.64,177.25,-739.75,787.11,39.02,-6.55,6.28,
05/25/2025,21:18:34.66,94.73,-703.12,762.21,22.62,6.31,6.13,
05/25/2025,21:18:34.68,71.78,-673.34,796.39,11.22,6.34,6.13,
05/25/2025,21:18:34.70,96.19,-703.61,727.54,12.90,6.71,7.59,
05/25/2025,21:18:34.72,88.87,-692.87,714.36,6.95,13.84,6.10,
05/25/2025,21:18:34.74,61.04,-693.85,702.64,17.62,-0.21,-9.60,
05/25/2025,21:18:34.76,128.91,-692.38,766.11,24.27,9.91,-4.05,
05/25/2025,21:18:34.78,106.45,-687.99,764.16,15.09,8.99,-2.16,
05/25/2025,21:18:34.80,56.15,-660.16,671.88,29.24,3.05,-14.91,
05/25/2025,21:18:34.82,134.28,-684.08,744.63,29.57,5.67,-9.73,
05/25/2025,21:18:34.84,110.84,-684.08,751.95,22.47,5.24,-8.96,
05/25/2025,21:18:34.87,98.63,-650.88,823.73,14.76,13.08,0.37,
05/25/2025,21:18:34.89,68.36,-647.46,828.12,-1.92,-0.67,-2.87,
05/25/2025,21:18:34.93,166.50,-676.76,718.26,0.52,27.87,-1.31,
05/25/2025,21:18:34.95,131.84,-701.66,734.86,7.20,41.16,-3.20,
05/25/2025,21:18:34.97,57.13,-693.85,664.06,16.98,51.28,-8.93,
05/25/2025,21:18:34.99,34.67,-658.20,763.18,14.54,41.95,-21.13,
05/25/2025,21:18:35.01,47.36,-649.90,706.05,6.89,38.54,-24.88,
05/25/2025,21:18:35.03,48.34,-705.57,734.38,19.73,39.45,-31.86,
05/25/2025,21:18:35.05,66.41,-640.14,707.52,19.05,27.23,-16.34,
05/25/2025,21:18:35.08,13.67,-625.49,710.94,36.55,16.07,-11.01,
05/25/2025,21:18:35.10,66.41,-634.77,764.16,43.72,-11.16,-6.28,
05/25/2025,21:18:35.12,84.96,-654.79,772.46,30.67,-20.12,-8.11,
05/25/2025,21:18:35.14,62.01,-626.95,819.34,22.04,-11.25,-2.47,
05/25/2025,21:18:35.16,33.69,-604.49,785.16,8.45,-9.88,-1.04,
05/25/2025,21:18:35.18,48.34,-604.49,777.83,2.84,-3.17,1.49,
05/25/2025,21:18:35.20,48.34,-611.33,824.71,7.10,-3.72,10.61,
05/25/2025,21:18:35.22,49.32,-616.70,743.65,19.73,-12.38,9.12,
05/25/2025,21:18:35.24,61.04,-619.14,820.31,19.54,-22.41,4.70,
05/25/2025,21:18:35.26,108.40,-599.61,690.92,-4.18,-14.39,5.91,
05/25/2025,21:18:35.28,120.61,-572.27,877.93,-2.44,-2.35,9.36,
05/25/2025,21:18:35.30,77.64,-592.77,831.54,-15.43,-25.55,9.24,
05/25/2025,21:18:35.32,66.41,-628.42,820.31,-26.07,-27.07,4.33,
05/25/2025,21:18:35.34,96.19,-608.40,779.30,-34.70,-43.63,1.34,
05/25/2025,21:18:35.36,110.84,-627.93,767.09,-16.37,-19.27,-2.90,
05/25/2025,21:18:35.38,109.86,-635.74,717.77,-0.18,-15.03,-17.59,
05/25/2025,21:18:35.40,125.00,-642.09,796.39,25.24,0.85,-19.27,
05/25/2025,21:18:35.45,116.70,-632.32,848.63,13.05,16.59,-9.09,
05/25/2025,21:18:35.47,112.79,-615.23,777.83,3.51,9.15,-1.77,
05/25/2025,21:18:35.49,124.51,-621.58,841.80,13.90,31.43,-3.41,
05/25/2025,21:18:35.51,104.98,-615.72,834.96,8.87,34.54,-3.20,
05/25/2025,21:18:35.53,101.07,-603.52,818.85,-0.24,12.80,1.74,
05/25/2025,21:18:35.55,96.68,-616.21,722.17,-1.92,18.84,7.96,
05/25/2025,21:18:35.57,83.50,-621.58,797.36,12.53,44.63,-0.27,
05/25/2025,21:18:35.59,66.89,-597.17,851.56,8.14,32.41,-3.81,
05/25/2025,21:18:35.61,64.94,-590.33,844.24,9.42,8.48,-5.95,
05/25/2025,21:18:35.63,70.80,-614.75,780.27,13.14,1.77,-2.04,
05/25/2025,21:18:35.65,67.87,-610.84,783.20,14.82,-3.11,-1.68,
05/25/2025,21:18:35.67,89.84,-600.10,797.36,22.56,-5.58,-6.40,
05/25/2025,21:18:35.69,89.36,-597.17,791.02,22.07,-4.54,-10.49,
05/25/2025,21:18:35.71,58.59,-604.49,743.65,29.05,9.60,-15.30,
05/25/2025,21:18:35.73,38.09,-604.49,745.12,39.70,23.54,-23.14,
05/25/2025,21:18:35.75,48.34,-567.38,850.59,51.59,-5.24,-23.14,
05/25/2025,21:18:35.77,70.31,-531.74,855.47,51.74,-12.13,-21.77,
05/25/2025,21:18:35.79,91.31,-491.70,885.25,39.54,-24.24,-16.22,
05/25/2025,21:18:35.81,69.82,-518.55,900.39,33.75,-32.74,-12.44,
05/25/2025,21:18:35.83,170.90,-522.95,875.00,15.34,-7.10,-15.21,
05/25/2025,21:18:35.85,94.73,-506.35,807.62,11.55,30.43,-3.11,
05/25/2025,21:18:35.87,119.14,-499.51,889.65,-7.80,8.69,-5.37,
05/25/2025,21:18:35.89,123.54,-515.14,925.78,-4.42,-5.12,-2.59,
05/25/2025,21:18:35.91,81.05,-479.98,851.56,-10.82,-9.18,-0.27,
05/25/2025,21:18:35.96,101.07,-535.64,844.73,-12.74,-1.55,-8.99,
05/25/2025,21:18:35.98,115.23,-555.18,787.11,-5.09,1.98,-7.71,
05/25/2025,21:18:36.00,125.00,-558.59,884.28,1.68,8.05,-6.25,
05/25/2025,21:18:36.02,121.09,-549.80,835.94,0.79,2.07,-2.13,
05/25/2025,21:18:36.04,96.19,-509.28,875.49,-2.07,-4.21,-0.85,
05/25/2025,21:18:36.06,113.77,-513.18,864.75,4.85,5.73,-3.41,
05/25/2025,21:18:36.08,101.07,-546.88,860.35,-0.91,4.82,-5.64,
05/25/2025,21:18:36.10,109.86,-537.11,817.87,-8.87,1.25,-8.23,
05/25/2025,21:18:36.12,127.93,-525.88,833.01,-2.44,9.45,-5.49,
05/25/2025,21:18:36.14,114.26,-534.67,843.75,6.74,19.05,-8.11,
05/25/2025,21:18:36.16,95.70,-521.00,881.84,6.16,20.52,-9.09,
05/25/2025,21:18:36.18,119.14,-521.00,861.82,-3.08,-13.90,-3.23,
05/25/2025,21:18:36.20,104.98,-539.06,804.20,-2.20,-12.35,-2.20,
05/25/2025,21:18:36.22,134.28,-530.76,808.11,0.09,-17.38,-3.84,
05/25/2025,21:18:36.24,140.14,-532.71,792.48,8.38,-4.18,-4.82,
05/25/2025,21:18:36.26,79.10,-518.07,870.61,3.23,-1.43,-2.29,
05/25/2025,21:18:36.28,116.21,-520.51,897.46,-2.77,-1.65,-2.16,
05/25/2025,21:18:36.30,132.81,-518.55,815.92,1.04,9.82,-2.07,
05/25/2025,21:18:36.32,134.77,-519.53,874.02,0.73,3.51,2.10,
05/25/2025,21:18:36.34,115.23,-518.55,886.23,-0.55,1.16,-0.55,
05/25/2025,21:18:36.36,89.36,-531.74,833.01,-2.87,-5.70,-2.41,
05/25/2025,21:18:36.38,115.23,-534.67,824.22,4.79,5.64,-4.30,
05/25/2025,21:18:36.40,121.09,-531.25,855.47,14.97,15.00,-7.93,
05/25/2025,21:18:36.42,116.21,-546.39,826.66,9.42,8.90,-4.15,
05/25/2025,21:18:36.47,99.61,-517.58,878.91,14.66,9.05,-3.45,
05/25/2025,21:18:36.49,116.21,-527.83,896.48,10.27,-4.18,-2.53,
05/25/2025,21:18:36.51,117.19,-520.02,879.88,-0.91,-11.46,-1.31,
05/25/2025,21:18:36.53,107.42,-533.69,811.52,-1.80,3.54,-5.43,
05/25/2025,21:18:36.55,107.91,-511.72,870.61,-5.24,5.91,-2.23,
05/25/2025,21:18:36.57,102.54,-518.55,849.61,-7.32,0.37,-0.55,
05/25/2025,21:18:36.59,107.91,-509.77,888.18,-5.73,-2.59,1.86,
05/25/2025,21:18:36.61,112.30,-533.69,864.26,-5.15,-2.13,4.02,
05/25/2025,21:18:36.63,121.09,-534.18,841.31,-8.54,-2.59,5.43,
05/25/2025,21:18:36.65,112.79,-535.64,837.89,-4.70,1.80,2.56,
05/25/2025,21:18:36.67,102.05,-533.20,864.26,-1.40,3.05,0.46,
05/25/2025,21:18:36.69,112.30,-514.65,849.12,-3.72,-4.30,2.62,
05/25/2025,21:18:36.71,102.54,-519.53,875.98,-6.83,-7.47,2.93,
05/25/2025,21:18:36.73,108.40,-532.23,840.33,-15.95,-11.40,2.59,
05/25/2025,21:18:36.75,109.38,-534.67,832.52,-7.32,-0.37,1.71,
05/25/2025,21:18:36.77,117.68,-521.97,818.85,-6.77,-1.62,1.43,
05/25/2025,21:18:36.79,137.21,-526.37,849.12,-8.57,-7.84,4.54,
05/25/2025,21:18:36.81,121.58,-549.32,833.01,-12.38,-8.93,5.85,
05/25/2025,21:18:36.83,127.93,-550.29,841.80,-15.73,-17.23,7.26,
05/25/2025,21:18:36.85,132.32,-549.80,760.25,-15.27,-14.05,7.96,
05/25/2025,21:18:36.87,140.62,-583.50,744.14,3.41,0.06,3.87,
05/25/2025,21:18:36.89,158.69,-574.22,812.01,15.09,3.05,2.93,
05/25/2025,21:18:36.91,136.23,-580.08,806.15,17.87,13.66,-0.27,
05/25/2025,21:18:36.93,140.62,-542.48,878.42,11.62,1.83,5.34,
05/25/2025,21:18:36.98,126.46,-556.15,866.70,-7.53,-13.75,8.87,
05/25/2025,21:18:37.00,138.67,-565.43,814.94,-4.02,1.28,0.27,
05/25/2025,21:18:37.02,113.77,-558.11,845.21,-8.63,5.18,4.30,
05/25/2025,21:18:37.04,119.63,-535.64,874.51,-17.68,-1.65,0.52,
05/25/2025,21:18:37.06,136.72,-557.13,817.38,-22.20,-13.32,6.16,
05/25/2025,21:18:37.08,136.23,-557.13,806.15,-33.51,-18.57,8.84,
05/25/2025,21:18:37.10,147.46,-571.78,794.92,-43.38,-31.49,17.96,
05/25/2025,21:18:37.12,150.88,-604.49,816.89,-56.34,-44.76,24.82,
05/25/2025,21:18:37.14,148.93,-598.14,812.99,-90.18,-72.96,35.70,
05/25/2025,21:18:37.16,149.90,-632.32,866.21,-147.04,-125.82,47.32,
05/25/2025,21:18:37.18,128.42,-724.61,607.91,-215.06,-151.80,48.08,
05/25/2025,21:18:37.20,143.07,-702.15,489.26,-278.08,-150.76,50.49,
05/25/2025,21:18:37.22,90.33,-691.41,640.62,-374.88,-207.71,61.71,
05/25/2025,21:18:37.24,-4.39,-1074.22,311.52,-507.80,-315.82,67.56,
05/25/2025,21:18:37.26,169.92,-804.69,190.43,-433.20,-445.12,90.76,
05/25/2025,21:18:37.28,22.46,-801.27,85.94,-403.26,-487.38,90.46,
05/25/2025,21:18:37.30,-335.94,-645.02,-103.52,-384.30,-496.74,100.73,
05/25/2025,21:18:37.32,-78.61,-828.61,-641.60,-300.88,-413.60,78.20,
05/25/2025,21:18:37.34,169.92,-1099.12,-781.25,-162.59,-290.55,88.84,
05/25/2025,21:18:37.36,31.25,-1041.02,-798.83,-73.23,-178.57,79.48,
05/25/2025,21:18:37.38,-109.38,-943.85,-557.62,-19.82,-99.73,61.34,
05/25/2025,21:18:37.40,-137.21,-936.52,-651.86,-11.59,-7.96,18.72,
05/25/2025,21:18:37.42,-139.16,-848.63,-219.73,-33.48,-31.04,37.35,
05/25/2025,21:18:37.44,-122.07,-924.80,-488.77,-78.81,-86.04,28.69,
05/25/2025,21:18:37.49,-139.16,-833.50,-479.98,17.50,33.93,24.70,
05/25/2025,21:18:37.51,-171.88,-793.95,-389.16,18.57,4.57,9.02,
05/25/2025,21:18:37.53,-226.56,-810.06,-794.92,23.08,11.16,-31.37,
05/25/2025,21:18:37.55,-95.21,-775.39,-533.69,38.84,5.34,-21.62,
05/25/2025,21:18:37.57,-136.72,-811.52,-541.02,35.30,21.40,-6.37,
05/25/2025,21:18:37.59,-199.22,-800.78,-519.04,35.70,40.09,-11.77,
05/25/2025,21:18:37.62,-216.80,-723.63,-494.14,39.73,29.05,-12.29,
05/25/2025,21:18:37.64,-269.04,-652.83,-483.40,37.29,15.95,-13.69,
05/25/2025,21:18:37.66,-195.31,-716.80,-519.53,44.30,26.98,-16.80,
05/25/2025,21:18:37.68,-227.54,-846.68,-513.18,38.60,64.42,-35.21,
05/25/2025,21:18:37.70,-190.43,-727.05,-548.34,61.37,90.30,-24.12,
05/25/2025,21:18:37.72,-162.11,-752.44,-428.22,86.52,75.76,-36.37,
05/25/2025,21:18:37.74,-83.01,-935.06,-446.29,91.71,62.13,-51.22,
05/25/2025,21:18:37.76,-47.36,-901.37,-402.83,101.49,56.83,-44.21,
05/25/2025,21:18:37.78,-19.53,-975.59,-365.23,82.47,57.53,-28.48,
05/25/2025,21:18:37.80,5.37,-938.48,-281.74,79.15,38.54,-22.62,
05/25/2025,21:18:37.82,106.45,-964.84,-293.95,66.59,15.95,13.72,
05/25/2025,21:18:37.84,138.18,-1044.43,-254.39,41.80,-4.57,17.80,
05/25/2025,21:18:37.86,22.95,-1001.95,-213.38,110.49,4.05,3.05,
05/25/2025,21:18:37.88,93.75,-1082.52,-163.09,100.76,1.16,25.91,
05/25/2025,21:18:37.90,50.29,-1162.11,-75.68,91.16,6.19,42.26,
05/25/2025,21:18:37.92,67.38,-1181.15,-36.62,45.85,11.86,26.59,
05/25/2025,21:18:37.94,2.93,-1048.34,-28.81,20.24,-0.55,17.41,
05/25/2025,21:18:37.96,146.48,-1053.22,-38.57,44.76,2.16,6.86,
05/25/2025,21:18:38.01,79.10,-1000.00,-55.66,-11.98,-9.12,-23.02,
05/25/2025,21:18:38.03,82.03,-917.48,-39.55,-6.62,-13.66,-41.37,
05/25/2025,21:18:38.05,112.79,-975.59,-4.39,-14.39,-28.66,-37.65,
05/25/2025,21:18:38.07,162.11,-1026.37,-24.90,-1.43,-22.62,-27.90,
05/25/2025,21:18:38.09,144.53,-1104.49,-19.04,20.85,-10.52,-27.38,
05/25/2025,21:18:38.11,147.95,-1035.16,24.90,32.80,3.45,-20.73,
05/25/2025,21:18:38.13,185.06,-1037.60,12.70,34.36,11.43,-10.95,
05/25/2025,21:18:38.15,198.73,-1129.39,13.18,36.92,14.18,-11.71,
05/25/2025,21:18:38.17,224.61,-1128.42,6.35,38.41,4.05,-1.83,
05/25/2025,21:18:38.19,351.56,-1161.13,-227.05,28.51,3.81,-9.21,
05/25/2025,21:18:38.21,91.31,-1143.07,24.90,19.94,27.10,-10.88,
05/25/2025,21:18:38.23,207.52,-1138.18,-35.64,20.61,61.10,-4.27,
05/25/2025,21:18:38.25,310.55,-1384.77,-237.30,63.93,61.07,-30.49,
05/25/2025,21:18:38.27,30.76,-1063.48,100.10,46.89,41.77,-47.41,
05/25/2025,21:18:38.29,142.09,-1196.29,5.37,32.07,38.84,-43.14,
05/25/2025,21:18:38.31,231.45,-939.45,41.02,15.09,32.16,-20.18,
05/25/2025,21:18:38.33,103.03,-559.57,28.32,1.65,10.61,-16.07,
05/25/2025,21:18:38.35,335.45,-734.86,64.94,-12.32,-6.46,9.88,
05/25/2025,21:18:38.37,144.04,-879.88,-33.20,-11.10,-5.21,56.62,
05/25/2025,21:18:38.39,53.71,-1000.00,44.92,-9.82,7.47,30.06,
05/25/2025,21:18:38.41,13.18,-883.30,31.74,-23.90,5.95,25.55,
05/25/2025,21:18:38.43,22.46,-995.12,-60.06,-17.41,-5.88,28.90,
05/25/2025,21:18:38.45,8.30,-876.95,5.37,-35.06,-0.73,26.07,
05/25/2025,21:18:38.47,20.51,-954.10,-74.22,-16.65,-13.05,17.44,
05/25/2025,21:18:38.54,-19.53,-849.12,-44.43,15.67,-20.40,40.61,
05/25/2025,21:18:38.56,49.32,-968.75,-47.36,7.99,-18.78,29.30,
05/25/2025,21:18:38.58,15.14,-2117.68,-228.03,158.54,-21.25,80.88,
05/25/2025,21:18:38.60,29.30,-1008.30,38.57,28.93,30.49,19.15,
05/25/2025,21:18:38.62,-39.06,-1021.97,70.80,10.70,9.02,5.64,
05/25/2025,21:18:38.64,-118.16,-1060.06,82.03,-6.83,-16.25,-18.48,
05/25/2025,21:18:38.66,-38.09,-1061.52,87.89,-10.37,-22.41,-4.57,
05/25/2025,21:18:38.68,53.71,-1008.30,-22.46,-18.78,-24.05,-27.29,
05/25/2025,21:18:38.70,13.18,-995.61,2.93,-22.53,-28.08,-32.44,
05/25/2025,21:18:38.72,78.12,-987.79,-57.13,-1.80,-28.84,-17.68,
05/25/2025,21:18:38.74,57.62,-1014.65,-84.47,4.97,-20.21,-2.38,
05/25/2025,21:18:38.76,27.83,-1047.85,-93.26,11.37,4.91,-4.18,
05/25/2025,21:18:38.78,54.20,-1014.65,-71.29,27.13,15.67,-2.68,
05/25/2025,21:18:38.80,42.97,-1028.32,-45.41,20.88,33.32,5.30,
05/25/2025,21:18:38.82,210.45,-1190.92,-556.64,12.01,-2.96,15.88,
05/25/2025,21:18:38.84,0.00,-885.74,261.72,6.83,-20.70,10.98,
05/25/2025,21:18:38.86,-15.62,-1041.02,117.68,5.18,19.21,-1.25,
05/25/2025,21:18:38.88,3.42,-1012.70,53.22,-8.17,18.75,-10.00,
05/25/2025,21:18:38.90,76.17,-1051.27,-224.61,-12.87,25.21,-21.55,
05/25/2025,21:18:38.92,67.87,-1034.18,-133.30,11.28,27.50,-22.56,
05/25/2025,21:18:38.94,66.41,-1024.41,-42.97,-3.69,24.60,-16.55,
05/25/2025,21:18:38.96,182.62,-1063.48,29.30,2.99,0.18,-30.18,
05/25/2025,21:18:38.98,-349.12,-310.06,1561.52,-37.71,-51.13,-5.52,
05/25/2025,21:18:39.03,-14.16,-964.84,103.03,-13.11,19.30,-4.48,
05/25/2025,21:18:39.05,33.20,-997.56,55.66,0.18,19.54,-2.29,
05/25/2025,21:18:39.07,51.27,-1004.39,-13.67,4.79,20.82,-0.91,
05/25/2025,21:18:39.09,32.23,-1025.39,-53.71,6.95,14.85,4.54,
05/25/2025,21:18:39.11,33.20,-1030.27,8.30,5.00,17.20,4.30,
05/25/2025,21:18:39.13,128.42,-1074.71,-297.36,-20.88,-2.35,3.35,
05/25/2025,21:18:39.15,20.51,-1016.60,-53.22,-12.13,20.82,-11.25,
05/25/2025,21:18:39.17,70.31,-1033.20,-107.91,-11.52,14.51,-4.88,
05/25/2025,21:18:39.19,57.13,-1021.48,-94.24,-0.73,15.64,-2.71,
05/25/2025,21:18:39.21,78.61,-1040.53,-172.36,1.55,12.41,0.58,
05/25/2025,21:18:39.23,56.15,-1027.83,-71.78,11.34,16.83,-3.29,
05/25/2025,21:18:39.25,72.27,-993.16,-10.25,3.84,12.29,3.38,
05/25/2025,21:18:39.27,53.71,-1008.30,-31.25,9.94,12.87,2.38,
05/25/2025,21:18:39.29,-37.60,-1095.70,-109.86,0.18,14.15,1.74,
05/25/2025,21:18:39.31,58.59,-1023.44,-38.57,0.12,10.34,-2.53,
05/25/2025,21:18:39.33,58.11,-1026.86,-23.93,0.98,3.69,0.52,
05/25/2025,21:18:39.35,53.71,-1032.23,-37.60,1.68,0.82,0.52,
05/25/2025,21:18:39.37,54.69,-1013.18,-42.97,-0.46,4.51,-1.49,
05/25/2025,21:18:39.39,53.71,-1021.97,-38.09,-0.52,7.10,-1.95,
05/25/2025,21:18:39.41,39.06,-1009.77,-44.92,5.52,5.82,3.26,
05/25/2025,21:18:39.43,112.30,-952.64,-21.48,3.26,-10.43,12.23,
05/25/2025,21:18:39.45,29.79,-1015.14,-78.12,19.85,-30.18,25.18,
05/25/2025,21:18:39.47,-27.83,-1108.89,468.75,31.22,5.15,-19.15,
05/25/2025,21:18:39.49,-105.47,-1020.51,-11.72,4.76,-7.16,-29.79,
05/25/2025,21:18:39.54,187.01,-1044.43,-140.14,-5.40,-37.96,-21.52,
05/25/2025,21:18:39.56,356.45,-867.68,112.30,-27.90,-33.96,-14.73,
05/25/2025,21:18:39.58,-52.25,-1139.16,-85.94,-1.01,-9.12,-30.30,
05/25/2025,21:18:39.60,46.88,-1068.85,104.49,1.86,-7.71,-21.28,
05/25/2025,21:18:39.62,146.48,-920.41,47.36,-22.65,-36.13,-1.86,
05/25/2025,21:18:39.64,90.82,-977.05,-45.41,-60.88,-5.58,-18.45,
05/25/2025,21:18:39.66,83.50,-1050.78,-183.11,-48.11,0.55,1.55,
05/25/2025,21:18:39.68,141.11,-949.22,-161.13,-41.98,-3.02,-7.44,
05/25/2025,21:18:39.70,32.71,-963.87,-114.26,-21.92,-26.62,1.86,
05/25/2025,21:18:39.72,107.91,-1021.48,-113.28,12.16,59.05,22.77,
05/25/2025,21:18:39.74,54.69,-1091.80,-84.47,29.76,54.88,-30.27,
05/25/2025,21:18:39.76,220.21,-980.96,8.30,-26.59,23.54,-18.51,
05/25/2025,21:18:39.78,116.21,-1009.77,-83.01,-17.41,5.40,-18.48,
05/25/2025,21:18:39.80,45.41,-888.67,-103.52,-8.11,-13.78,-27.59,
05/25/2025,21:18:39.82,177.73,-948.73,-164.06,17.13,-14.97,-24.12,
05/25/2025,21:18:39.84,169.92,-992.19,-101.07,8.23,-15.76,0.95,
05/25/2025,21:18:39.86,202.64,-969.73,-333.98,34.18,-6.62,9.70,
05/25/2025,21:18:39.88,118.65,-1037.11,-98.63,11.92,-9.27,3.29,
05/25/2025,21:18:39.90,125.00,-986.82,-60.06,27.07,-15.37,-6.89,
05/25/2025,21:18:39.92,60.06,-1038.57,-21.97,48.93,-12.07,-13.26,
05/25/2025,21:18:39.94,124.51,-1032.23,83.01,76.68,-5.76,-8.75,
05/25/2025,21:18:39.96,172.36,-981.45,-136.72,43.87,18.23,1.52,
05/25/2025,21:18:39.98,227.05,-936.04,138.18,28.60,22.99,17.44,
05/25/2025,21:18:40.00,141.60,-1067.38,-116.70,28.96,26.52,16.92,
05/25/2025,21:18:40.05,91.80,-1112.79,-256.35,11.62,19.79,-0.09,
05/25/2025,21:18:40.07,269.04,-861.33,24.90,8.63,12.16,8.11,
05/25/2025,21:18:40.09,263.67,-1053.22,-358.40,-20.40,-33.99,17.26,
05/25/2025,21:18:40.11,135.25,-1022.95,-5.37,-37.41,43.17,11.71,
05/25/2025,21:18:40.13,131.35,-981.93,-18.55,-36.34,33.75,6.13,
05/25/2025,21:18:40.15,46.88,-1054.69,17.09,-46.59,57.50,11.71,
05/25/2025,21:18:40.17,116.21,-1074.22,-249.02,-40.24,34.05,16.19,
05/25/2025,21:18:40.19,502.44,-1124.02,-1156.25,-58.81,3.69,7.13,
05/25/2025,21:18:40.21,-72.75,-1001.46,247.56,-68.66,-24.63,-1.52,
05/25/2025,21:18:40.23,-13.67,-1024.41,105.96,-57.93,-3.96,-0.18,
05/25/2025,21:18:40.25,114.26,-1026.86,-155.27,-29.33,4.33,-1.37,
05/25/2025,21:18:40.27,92.77,-1015.62,-128.42,-15.55,6.22,-1.49,
05/25/2025,21:18:40.29,99.61,-1010.25,-153.32,6.22,-11.25,-1.40,
05/25/2025,21:18:40.31,104.49,-1051.27,-217.77,44.66,-0.98,-0.09,
05/25/2025,21:18:40.33,200.20,-1038.09,-432.62,39.33,16.25,-7.56,
05/25/2025,21:18:40.35,113.77,-908.20,120.61,38.26,24.97,-14.70,
05/25/2025,21:18:40.37,140.14,-1031.25,-181.15,30.70,10.67,-10.95,
05/25/2025,21:18:40.39,108.40,-1011.72,-69.34,12.26,-1.74,-7.32,
05/25/2025,21:18:40.41,128.42,-1016.11,-77.15,6.77,-1.04,-7.80,
05/25/2025,21:18:40.43,80.08,-1050.29,-70.80,15.88,-14.57,-20.40,
05/25/2025,21:18:40.45,-20.51,-1151.86,-53.71,28.78,-29.70,-26.59,
05/25/2025,21:18:40.47,243.65,-957.03,61.04,27.68,-31.98,-43.63,
05/25/2025,21:18:40.49,171.39,-994.14,-72.75,2.26,0.91,-16.98,
05/25/2025,21:18:40.51,79.10,-994.14,57.62,-1.80,11.52,-6.01,
05/25/2025,21:18:40.56,145.02,-990.23,-64.94,-2.56,8.69,-3.66,
05/25/2025,21:18:40.59,244.63,-1005.86,-354.98,-4.76,53.60,-2.80,
05/25/2025,21:18:40.61,151.86,-1029.30,-149.41,6.59,6.37,-1.62,
05/25/2025,21:18:40.63,188.96,-998.54,-84.96,-11.43,-51.37,-0.03,
05/25/2025,21:18:40.65,223.14,-1006.84,32.71,-2.32,-73.72,41.80,
05/25/2025,21:18:40.67,67.38,-1001.95,-207.03,-4.39,-57.84,18.17,
05/25/2025,21:18:40.69,31.74,-1072.27,-80.08,18.93,-37.59,-24.63,
05/25/2025,21:18:40.71,224.61,-1044.92,-29.79,29.66,-42.01,-45.88,
05/25/2025,21:18:40.73,309.57,-782.71,-172.85,33.23,-34.42,-23.57,
05/25/2025,21:18:40.75,65.92,-1005.86,129.88,51.49,-48.35,3.32,
05/25/2025,21:18:40.77,252.44,-884.77,-260.25,69.45,3.84,16.10,
05/25/2025,21:18:40.79,202.15,-893.07,52.25,25.55,33.81,39.02,
05/25/2025,21:18:40.81,139.16,-1046.39,-366.70,16.68,11.77,43.38,
05/25/2025,21:18:40.83,166.02,-834.47,-61.04,11.04,39.18,69.63,
05/25/2025,21:18:40.85,276.86,-1060.55,-196.78,42.04,37.26,82.53,
05/25/2025,21:18:40.87,44.92,-798.34,187.99,20.61,54.51,79.60,
05/25/2025,21:18:40.89,-89.36,-1079.59,316.89,27.59,14.91,63.35,
05/25/2025,21:18:40.91,-66.89,-1148.93,131.84,9.54,17.50,49.70,
05/25/2025,21:18:40.93,21.48,-1028.32,70.80,4.91,1.37,0.55,
05/25/2025,21:18:40.95,-11.72,-1016.11,54.20,1.28,-4.12,4.12,
05/25/2025,21:18:40.97,13.18,-1012.70,4.88,0.21,6.10,-2.65,
05/25/2025,21:18:40.99,8.30,-1023.44,36.13,0.43,10.82,0.82,
05/25/2025,21:18:41.01,-0.49,-1018.55,36.13,2.20,22.84,-1.10,
05/25/2025,21:18:41.03,-46.39,-1040.53,91.80,7.50,6.43,-10.55,
05/25/2025,21:18:41.08,50.78,-1092.77,-85.45,-28.57,-43.05,-21.71,
05/25/2025,21:18:41.10,5.86,-1101.56,6.84,-28.45,-36.16,-15.30,
05/25/2025,21:18:41.12,-15.14,-1086.91,234.86,-38.93,5.76,-1.55,
05/25/2025,21:18:41.14,48.83,-999.02,39.55,-10.79,18.57,2.68,
05/25/2025,21:18:41.16,-60.55,-1083.50,-60.06,-4.97,11.83,7.90,
05/25/2025,21:18:41.18,19.04,-1027.83,-8.30,-1.68,3.23,9.76,
05/25/2025,21:18:41.20,22.95,-1006.35,1.95,-1.04,6.28,8.08,
05/25/2025,21:18:41.22,24.41,-1004.39,-16.11,0.49,9.63,9.79,
05/25/2025,21:18:41.24,62.50,-997.56,-33.20,1.01,11.80,2.04,
05/25/2025,21:18:41.26,18.07,-1027.34,-56.64,-0.91,29.09,0.21,
05/25/2025,21:18:41.28,10.74,-1021.00,11.23,1.10,16.62,0.21,
05/25/2025,21:18:41.30,0.49,-1018.07,-6.35,-0.55,13.02,-0.70,
05/25/2025,21:18:41.32,-12.70,-1030.27,9.77,1.13,3.75,-0.76,
05/25/2025,21:18:41.34,-5.37,-1032.71,-9.77,1.10,6.22,0.49,
05/25/2025,21:18:41.36,4.39,-1025.39,-13.67,2.56,4.97,-0.18,
05/25/2025,21:18:41.38,4.39,-1038.09,-6.84,3.14,-0.03,0.34,
05/25/2025,21:18:41.40,13.67,-1021.48,9.77,2.96,-19.48,0.73,
05/25/2025,21:18:41.42,15.14,-1017.58,-13.18,2.87,-13.63,-2.32,
05/25/2025,21:18:41.44,22.46,-1013.67,-40.53,1.95,-21.28,-0.09,
05/25/2025,21:18:41.46,-25.88,-1018.07,103.03,-2.13,-40.98,-1.65,
05/25/2025,21:18:41.48,-14.65,-1026.37,6.84,-1.55,-60.70,-0.46,
05/25/2025,21:18:41.50,-1.95,-1041.99,-41.50,-5.27,-58.11,1.28,
05/25/2025,21:18:41.52,-5.86,-1016.60,3.91,0.34,-10.15,-2.32,
05/25/2025,21:18:41.54,-4.39,-1023.44,2.93,-6.46,-36.77,-2.90,
05/25/2025,21:18:41.59,121.58,-829.59,-34.67,-0.34,-25.76,-19.88,
05/25/2025,21:18:41.61,-109.86,-1175.78,-82.03,3.60,-11.92,-22.32,
05/25/2025,21:18:41.63,124.02,-950.68,-58.59,10.76,-0.85,-34.36,
05/25/2025,21:18:41.65,63.48,-1002.93,-98.14,7.01,16.31,-12.68,
05/25/2025,21:18:41.67,73.24,-1013.67,15.62,-10.12,24.57,-10.37,
05/25/2025,21:18:41.69,53.71,-982.91,18.55,-38.11,42.23,-5.15,
05/25/2025,21:18:41.71,59.57,-1012.21,1.46,-9.30,33.66,-0.09,
05/25/2025,21:18:41.73,56.15,-1027.83,-0.49,-8.60,22.65,-0.15,
05/25/2025,21:18:41.75,62.50,-1010.25,-9.28,-7.84,18.02,-1.92,
05/25/2025,21:18:41.77,53.71,-1028.81,-21.48,-3.35,11.19,-1.34,
05/25/2025,21:18:41.79,37.11,-1033.20,-25.39,0.12,2.47,-0.61,
05/25/2025,21:18:41.81,65.43,-998.54,-22.46,0.09,0.55,-3.93,
05/25/2025,21:18:41.83,52.25,-1024.90,-52.73,1.62,-5.37,-4.54,
05/25/2025,21:18:41.85,53.22,-1036.13,-53.71,-2.50,7.56,-10.98,
05/25/2025,21:18:41.87,108.89,-941.41,-6.35,-4.88,11.80,-9.05,
05/25/2025,21:18:41.89,84.47,-1017.09,-50.29,-5.70,4.91,3.26,
05/25/2025,21:18:41.91,57.13,-1057.13,-44.43,2.71,3.05,1.98,
05/25/2025,21:18:41.94,70.31,-1022.95,-56.15,0.18,5.43,1.71,
05/25/2025,21:18:41.96,60.55,-1031.74,-48.34,1.74,5.88,0.03,
05/25/2025,21:18:41.98,63.96,-1025.88,-53.22,-3.17,11.83,0.37,
05/25/2025,21:18:42.00,54.20,-1016.11,-37.60,-2.62,5.98,1.80,
05/25/2025,21:18:42.02,64.45,-1016.11,-51.27,0.43,1.98,2.93,
05/25/2025,21:18:42.04,71.29,-1020.02,-34.18,1.65,0.43,-0.55,
05/25/2025,21:18:42.06,75.68,-998.54,-38.57,1.55,2.26,4.85,
05/25/2025,21:18:42.11,60.55,-1010.25,9.28,12.62,-22.53,18.02,
05/25/2025,21:18:42.13,18.55,-1079.10,-44.43,21.19,-35.12,43.75,
05/25/2025,21:18:42.15,-93.75,-1195.31,-42.97,17.50,-35.43,53.17,
05/25/2025,21:18:42.17,-17.09,-983.89,-56.64,14.76,-29.24,51.19,
05/25/2025,21:18:42.19,132.32,-1044.92,19.53,-7.56,-27.04,31.22,
05/25/2025,21:18:42.21,19.04,-1010.25,-26.86,-1.95,19.97,18.63,
05/25/2025,21:18:42.23,-259.28,-1027.83,95.21,1.65,34.39,28.02,
05/25/2025,21:18:42.25,-5.86,-1031.74,23.93,-2.13,11.49,6.43,
05/25/2025,21:18:42.27,21.97,-979.49,42.97,4.27,-13.45,8.87,
05/25/2025,21:18:42.29,86.91,-955.57,107.42,1.07,-40.61,31.46,
05/25/2025,21:18:42.31,101.56,-841.31,512.70,16.59,-145.95,45.15,
05/25/2025,21:18:42.33,-78.12,-1011.72,-233.40,-6.07,-3.78,38.14,
05/25/2025,21:18:42.35,-297.36,-939.94,-224.61,-16.68,63.41,30.24,
05/25/2025,21:18:42.37,-53.71,-943.85,-129.39,-25.67,57.53,53.93,
05/25/2025,21:18:42.39,-114.75,-930.18,-105.47,-23.90,110.06,26.28,
05/25/2025,21:18:42.41,-159.67,-1065.92,14.16,28.41,116.77,24.36,
05/25/2025,21:18:42.43,-130.86,-1023.93,118.65,-6.10,111.80,12.93,
05/25/2025,21:18:42.45,-106.93,-998.05,-34.18,-48.02,63.69,7.96,
05/25/2025,21:18:42.47,-131.84,-1011.23,15.62,8.66,28.60,2.44,
05/25/2025,21:18:42.49,-125.98,-1030.76,-0.98,-5.73,-14.54,-1.65,
05/25/2025,21:18:42.51,-116.21,-1024.41,-37.11,-8.63,-39.30,14.57,
05/25/2025,21:18:42.53,-106.45,-1009.28,-132.81,-4.12,-18.78,1.16,
05/25/2025,21:18:42.55,-107.42,-1010.74,-89.36,-5.34,-18.51,-4.76,
05/25/2025,21:18:42.57,-120.61,-1016.11,-77.15,-5.64,-23.05,-2.29,
05/25/2025,21:18:42.63,-117.19,-977.54,-59.57,-14.09,2.13,-21.92,
05/25/2025,21:18:42.65,-12.70,-974.12,-111.33,8.20,33.35,-19.66,
05/25/2025,21:18:42.67,-42.97,-912.60,-64.45,12.53,46.49,-17.23,
05/25/2025,21:18:42.69,-82.03,-1046.88,-58.59,14.02,33.38,-12.74,
05/25/2025,21:18:42.71,-31.25,-1004.39,-33.69,9.02,21.10,-5.64,
05/25/2025,21:18:42.73,-102.54,-1111.82,-241.21,5.24,8.72,-25.49,
05/25/2025,21:18:42.75,-55.66,-952.64,89.84,2.77,4.27,-27.47,
05/25/2025,21:18:42.77,-31.25,-958.01,-49.32,6.40,-0.12,-4.09,
05/25/2025,21:18:42.79,-91.80,-1037.60,111.82,7.56,39.09,11.62,
05/25/2025,21:18:42.81,-41.50,-996.58,-6.84,-2.65,14.05,-2.32,
05/25/2025,21:18:42.83,-81.05,-1021.97,-44.92,0.03,-12.62,-1.19,
05/25/2025,21:18:42.85,-62.99,-1013.67,-42.48,-3.48,-35.40,-3.87,
05/25/2025,21:18:42.87,-13.18,-1005.37,-132.32,1.59,0.79,-3.17,
05/25/2025,21:18:42.89,-51.76,-1033.69,-21.48,4.30,20.34,2.87,
05/25/2025,21:18:42.91,-108.89,-1005.86,28.32,3.08,18.20,0.15,
05/25/2025,21:18:42.93,-80.08,-1009.77,-108.89,3.20,14.63,0.88,
05/25/2025,21:18:42.95,-174.80,-1301.76,-51.27,3.78,17.99,2.84,
05/25/2025,21:18:42.97,-41.99,-1071.29,-94.73,10.82,21.52,7.68,
05/25/2025,21:18:42.99,-40.53,-1025.39,-6.35,2.59,17.07,0.95,
05/25/2025,21:18:43.01,-63.48,-1024.90,-80.08,0.30,1.04,0.40,
05/25/2025,21:18:43.03,-64.45,-1001.95,-106.93,-0.73,-26.92,-1.43,
05/25/2025,21:18:43.05,-56.15,-1025.88,-61.52,-0.46,-17.16,-3.26,
05/25/2025,21:18:43.07,-62.99,-1030.76,-56.64,3.93,-11.40,-0.82,
05/25/2025,21:18:43.09,-61.52,-1021.48,-43.46,1.52,-15.85,-1.34,
05/25/2025,21:18:43.15,-61.52,-1022.95,-39.06,1.49,-4.48,0.64,
05/25/2025,21:18:43.17,-50.29,-1008.30,-57.13,-8.02,-29.60,-2.53,
05/25/2025,21:18:43.19,-52.25,-1019.53,-30.27,-6.86,-28.99,-1.83,
05/25/2025,21:18:43.21,-31.74,-985.84,28.32,-14.09,-52.99,1.46,
05/25/2025,21:18:43.23,79.10,-878.91,-54.20,-21.16,-98.87,6.65,
05/25/2025,21:18:43.25,-50.78,-1015.62,7.81,-3.69,-65.09,2.87,
05/25/2025,21:18:43.27,148.93,-952.15,-34.67,4.97,-34.42,-6.49,
05/25/2025,21:18:43.29,-45.41,-1105.96,-196.29,1.25,-6.34,-24.36,
05/25/2025,21:18:43.31,5.37,-1019.04,-90.33,3.45,-12.65,-4.94,
05/25/2025,21:18:43.33,-54.20,-1027.83,-71.29,-7.13,-5.00,1.46,
05/25/2025,21:18:43.35,-127.44,-993.65,94.24,-26.98,-24.60,-6.52,
05/25/2025,21:18:43.37,-125.98,-1150.39,-102.05,-58.69,-53.99,-17.96,
05/25/2025,21:18:43.39,138.18,-919.92,-168.95,0.64,-32.38,-33.54,
05/25/2025,21:18:43.41,-58.59,-1059.57,-141.60,1.62,-22.68,-36.37,
05/25/2025,21:18:43.43,-40.04,-1028.81,-172.85,3.60,-13.81,-16.77,
05/25/2025,21:18:43.45,-13.67,-1049.32,-165.04,21.74,-32.13,-15.21,
05/25/2025,21:18:43.47,-98.14,-1022.95,-243.16,22.20,-6.77,-15.00,
05/25/2025,21:18:43.49,184.57,-1080.57,-191.41,20.49,0.37,-11.10,
05/25/2025,21:18:43.51,697.75,-598.14,-160.16,1.04,9.30,-52.01,
05/25/2025,21:18:43.53,311.52,-960.45,-169.92,12.04,33.20,-38.20,
05/25/2025,21:18:43.55,29.30,-1025.39,-146.00,10.82,43.08,-7.84,
05/25/2025,21:18:43.57,-24.41,-743.65,52.25,11.07,86.92,7.13,
05/25/2025,21:18:43.59,-972.66,194.34,-904.79,-64.33,118.69,-138.41,
05/25/2025,21:18:43.61,-97.17,-1105.96,-63.96,-15.00,34.36,-47.50,
05/25/2025,21:18:43.66,-152.34,-862.79,432.62,-58.05,-44.94,-14.54,
05/25/2025,21:18:43.68,-191.89,-945.31,416.50,-39.91,-38.08,-25.67,
05/25/2025,21:18:43.70,-4.39,-996.58,-33.20,3.48,-0.85,-3.75,
05/25/2025,21:18:43.72,37.11,-1004.88,-104.00,1.83,0.18,-1.49,
05/25/2025,21:18:43.74,30.76,-1002.44,-102.05,0.18,-0.49,3.14,
05/25/2025,21:18:43.76,-69.82,-958.98,134.77,-4.27,-20.34,-0.52,
05/25/2025,21:18:43.78,33.69,-1018.07,-100.59,1.10,-0.27,-1.01,
05/25/2025,21:18:43.80,44.92,-1021.97,-136.23,8.57,-11.07,-1.80,
05/25/2025,21:18:43.82,184.08,-1056.64,-558.59,69.12,57.44,4.09,
05/25/2025,21:18:43.84,-146.97,-1277.34,522.95,155.34,0.09,6.34,
05/25/2025,21:18:43.86,-767.09,-633.30,4111.82,93.41,-78.66,15.43,
05/25/2025,21:18:43.88,47.36,-1011.23,58.11,3.08,-5.21,5.06,
05/25/2025,21:18:43.90,-19.53,-1062.50,151.37,19.36,7.29,-15.34,
05/25/2025,21:18:43.92,19.04,-1032.23,-7.81,2.23,5.76,-0.95,
05/25/2025,21:18:43.94,31.25,-1018.55,11.72,1.13,3.51,-0.12,
05/25/2025,21:18:43.96,27.83,-1019.53,37.11,0.27,7.96,1.86,
05/25/2025,21:18:43.98,42.97,-1036.62,-41.50,1.62,16.10,3.17,
05/25/2025,21:18:44.00,46.88,-993.16,43.46,0.27,11.10,-2.53,
05/25/2025,21:18:44.02,25.39,-1027.34,1.95,-0.40,9.21,8.81,
05/25/2025,21:18:44.04,41.02,-1010.74,53.22,-2.23,7.74,8.29,
05/25/2025,21:18:44.06,-4.39,-1055.66,2.93,-0.67,3.99,3.48,
05/25/2025,21:18:44.08,7.32,-1032.71,11.72,1.37,0.24,0.67,
05/25/2025,21:18:44.10,10.74,-1021.48,-2.93,0.91,0.67,-0.09,
05/25/2025,21:18:44.12,8.30,-1013.67,-2.44,-1.52,-1.19,-0.49,
05/25/2025,21:18:44.17,13.18,-1030.76,21.00,-5.15,-15.40,-1.68,
05/25/2025,21:18:44.19,6.84,-1031.74,35.16,-0.52,-7.90,-1.86,
05/25/2025,21:18:44.21,20.02,-1028.32,19.53,-2.77,-8.81,1.59,
05/25/2025,21:18:44.23,29.30,-1028.32,-16.60,1.22,1.65,0.30,
05/25/2025,21:18:44.25,25.88,-1019.53,-9.28,0.67,1.80,-0.98,
05/25/2025,21:18:44.27,23.93,-1024.41,6.35,0.03,3.51,-0.30,
05/25/2025,21:18:44.29,25.88,-1006.84,-16.11,0.85,1.98,-3.78,
05/25/2025,21:18:44.31,23.93,-1013.67,-3.42,3.26,2.47,-1.16,
05/25/2025,21:18:44.33,21.97,-1026.86,-14.65,0.67,5.46,0.49,
05/25/2025,21:18:44.35,11.72,-1021.48,26.37,-0.18,9.63,1.16,
05/25/2025,21:18:44.37,15.14,-1028.32,12.70,-0.06,1.46,-1.83,
05/25/2025,21:18:44.39,20.02,-1021.00,-20.02,1.83,-2.41,-0.91,
05/25/2025,21:18:44.41,22.46,-1022.46,-7.81,3.90,2.16,0.43,
05/25/2025,21:18:44.43,20.51,-1024.90,-6.35,2.93,-2.07,-4.18,
05/25/2025,21:18:44.45,20.51,-1008.30,-15.62,3.29,0.12,-0.64,
05/25/2025,21:18:44.47,12.70,-1032.71,-1.46,2.29,3.69,-3.54,
05/25/2025,21:18:44.49,18.55,-1011.72,-1.95,2.26,-0.40,0.98,
05/25/2025,21:18:44.51,20.02,-1021.97,-6.84,2.32,-0.12,-0.34,
05/25/2025,21:18:44.53,29.30,-1014.65,-19.53,0.88,2.32,1.74,
05/25/2025,21:18:44.55,19.53,-1016.60,3.42,0.24,3.29,3.29,
05/25/2025,21:18:44.57,15.14,-1022.46,8.30,0.09,3.26,-0.30,
05/25/2025,21:18:44.59,0.00,-1035.64,58.59,-2.53,13.78,1.52,
05/25/2025,21:18:44.61,23.93,-1017.58,-22.46,-5.43,21.13,0.40,
05/25/2025,21:18:44.63,17.58,-1032.71,0.00,-3.14,12.99,2.16,
05/25/2025,21:18:44.68,9.28,-1030.76,32.71,4.70,-3.78,-0.61,
05/25/2025,21:18:44.70,41.02,-1023.44,-54.20,17.80,-23.69,-2.01,
05/25/2025,21:18:44.72,15.62,-1030.27,-7.81,1.55,-0.76,0.79,
05/25/2025,21:18:44.74,11.23,-1022.46,5.37,1.07,0.67,0.30,
05/25/2025,21:18:44.76,-0.49,-1021.00,8.30,1.89,0.49,-0.91,
05/25/2025,21:18:44.78,18.55,-1001.95,4.88,0.52,2.99,-2.74,
05/25/2025,21:18:44.80,21.48,-1035.64,-7.32,-1.04,3.81,-0.27,
05/25/2025,21:18:44.82,25.39,-1019.04,7.81,0.09,0.70,-1.19,
05/25/2025,21:18:44.84,-63.48,-991.70,266.60,11.62,18.08,-0.46,
05/25/2025,21:18:44.86,74.22,-1021.97,-233.40,0.27,14.79,1.01,
05/25/2025,21:18:44.88,-6.35,-1035.64,24.41,-37.84,72.44,-1.95,
05/25/2025,21:18:44.90,22.46,-1027.83,6.35,-12.90,24.97,-4.12,
05/25/2025,21:18:44.92,-22.95,-1051.76,120.61,-35.27,56.07,-3.41,
05/25/2025,21:18:44.94,-1.95,-1047.36,25.88,-12.68,17.96,-2.23,
05/25/2025,21:18:44.96,13.18,-1031.74,-28.81,-1.55,4.27,-3.57,
05/25/2025,21:18:44.98,-97.66,-1021.00,272.46,-7.01,-22.74,-1.34,
05/25/2025,21:18:45.01,-8.30,-1081.54,91.80,33.72,-57.84,-4.33,
05/25/2025,21:18:45.03,-454.59,-1077.64,1240.72,84.57,-111.40,11.71,
05/25/2025,21:18:45.05,-22.46,-1023.93,86.43,14.82,-32.65,-0.06,
05/25/2025,21:18:45.07,-122.07,-1007.32,361.82,29.79,-0.18,-1.74,
05/25/2025,21:18:45.09,2.93,-1038.09,24.90,17.41,-8.60,-9.73,
05/25/2025,21:18:45.11,32.71,-1027.34,23.44,4.63,0.27,-1.25,
05/25/2025,21:18:45.13,1.95,-1018.55,67.38,8.14,-22.10,-0.76,
05/25/2025,21:18:45.15,39.55,-1006.84,7.32,14.79,-44.82,-1.46,
05/25/2025,21:18:45.20,12.70,-1021.48,105.96,13.35,-44.76,-3.14,
05/25/2025,21:18:45.22,26.37,-1018.55,93.26,13.75,-34.76,-4.70,
05/25/2025,21:18:45.24,63.48,-1008.79,-127.44,2.13,-10.95,2.13,
05/25/2025,21:18:45.26,8.79,-1068.36,135.74,2.29,35.52,1.16,
05/25/2025,21:18:45.28,-1.95,-1025.39,-6.35,-3.51,26.74,1.77,
05/25/2025,21:18:45.30,77.15,-1099.61,147.95,1.83,22.77,3.20,
05/25/2025,21:18:45.32,46.39,-1044.92,-7.81,8.96,-2.10,0.00,
05/25/2025,21:18:45.34,-3.42,-1006.84,111.33,16.01,10.27,2.38,
05/25/2025,21:18:45.36,52.73,-993.16,-9.77,2.65,16.46,0.09,
05/25/2025,21:18:45.38,104.98,-939.45,-24.41,-9.12,52.96,5.09,
05/25/2025,21:18:45.40,-54.20,-1090.82,43.46,-16.04,69.94,7.44,
05/25/2025,21:18:45.42,-5.86,-1021.97,127.44,-21.49,54.45,8.78,
05/25/2025,21:18:45.44,-416.99,-995.61,910.64,-46.28,-135.30,-20.64,
05/25/2025,21:18:45.46,93.75,-771.48,-88.87,-8.08,-33.87,-38.02,
05/25/2025,21:18:45.48,94.24,-809.57,438.96,-7.10,-68.81,-30.06,
05/25/2025,21:18:45.50,26.86,-1017.09,50.78,-0.79,-12.65,2.87,
05/25/2025,21:18:45.52,145.51,-988.28,-233.89,-14.63,-41.37,21.52,
05/25/2025,21:18:45.54,-3.42,-1035.16,41.99,-3.48,13.26,14.09,
05/25/2025,21:18:45.56,12.21,-1061.52,40.04,-5.61,-11.86,0.21,
05/25/2025,21:18:45.58,-114.75,-996.09,313.48,-9.79,-67.13,6.19,
05/25/2025,21:18:45.60,51.27,-1021.48,-47.36,-1.04,-11.95,-1.46,
05/25/2025,21:18:45.62,46.39,-1029.30,-62.50,2.38,-6.65,0.18,
05/25/2025,21:18:45.64,41.50,-1008.79,-10.25,1.46,1.13,0.67,
05/25/2025,21:18:45.66,-2.93,-1041.02,-15.14,5.12,-4.05,16.19,
05/25/2025,21:18:45.71,-793.46,-1821.29,58.11,7.16,-17.87,18.45,
05/25/2025,21:18:45.73,-6.35,-1016.60,-27.83,0.52,-2.38,-0.76,
05/25/2025,21:18:45.75,4.39,-1019.53,-35.64,4.94,42.04,4.54,
05/25/2025,21:18:45.77,53.71,-1005.86,-20.51,6.77,55.85,4.94,
05/25/2025,21:18:45.79,9.28,-1021.00,19.04,8.66,71.74,1.52,
05/25/2025,21:18:45.81,-6.35,-1026.86,23.44,7.20,58.38,0.55,
05/25/2025,21:18:45.83,10.25,-1037.11,-44.92,5.34,59.70,2.90,
05/25/2025,21:18:45.85,-1.95,-1014.16,-10.74,5.85,54.88,1.34,
05/25/2025,21:18:45.87,-12.21,-1025.88,29.79,-1.37,62.84,0.27,
05/25/2025,21:18:45.89,-53.71,-1020.51,101.07,-11.37,35.52,2.65,
05/25/2025,21:18:45.91,-97.17,-1058.59,20.51,0.18,10.06,-22.44,
05/25/2025,21:18:45.93,58.11,-963.38,18.55,0.37,2.23,-7.65,
05/25/2025,21:18:45.95,5.37,-1026.37,-15.62,0.18,0.06,-4.27,
05/25/2025,21:18:45.97,5.86,-1018.55,23.44,1.68,-6.31,-0.49,
05/25/2025,21:18:45.99,-13.18,-1038.09,23.93,-0.27,-13.57,1.89,
05/25/2025,21:18:46.01,13.18,-1020.51,10.74,2.44,1.04,-1.01,
