rtcDate,rtcTime,aX,aY,aZ,gX,gY,gZ,
05/25/2025,21:12:22.81,-6.35,-31.74,993.65,2.16,1.77,-0.61,
05/25/2025,21:12:22.88,-13.18,-19.53,992.19,2.01,4.24,-2.26,
05/25/2025,21:12:22.90,-7.81,-23.44,994.63,3.51,-1.22,1.71,
05/25/2025,21:12:22.92,-11.72,-14.16,988.28,3.14,0.64,-2.53,
05/25/2025,21:12:22.94,-7.81,-16.60,997.56,2.71,1.77,-0.34,
05/25/2025,21:12:22.96,-14.65,-24.90,991.21,2.56,1.95,-0.40,
05/25/2025,21:12:22.98,-4.88,-18.55,999.51,2.20,1.37,0.09,
05/25/2025,21:12:23.00,-9.77,-20.02,1005.86,-0.49,0.61,-1.16,
05/25/2025,21:12:23.02,-10.25,-21.00,994.14,1.62,2.10,-2.59,
05/25/2025,21:12:23.04,-15.62,-22.46,996.58,0.79,4.88,1.62,
05/25/2025,21:12:23.06,2.44,-34.18,994.14,1.37,3.26,-0.82,
05/25/2025,21:12:23.08,-12.21,-27.34,1001.95,2.47,2.23,-2.20,
05/25/2025,21:12:23.10,-12.70,-16.11,995.61,2.77,1.25,-2.07,
05/25/2025,21:12:23.12,4.88,-30.27,1001.46,0.43,2.29,-1.65,
05/25/2025,21:12:23.14,2.44,-20.02,1003.42,0.37,0.67,1.46,
05/25/2025,21:12:23.16,-7.32,-19.04,989.75,-0.73,3.81,-0.27,
05/25/2025,21:12:23.18,-5.37,-26.37,1001.95,-0.27,2.56,-0.15,
05/25/2025,21:12:23.20,-3.91,-13.67,981.93,1.95,2.01,1.07,
05/25/2025,21:12:23.22,-4.39,-28.81,1000.49,0.30,1.25,-0.09,
05/25/2025,21:12:23.24,-6.84,-23.93,988.77,0.27,3.02,-2.41,
05/25/2025,21:12:23.26,-6.35,-25.88,992.19,0.49,1.40,-2.99,
05/25/2025,21:12:23.28,-0.49,-20.02,1000.49,0.03,1.55,-0.82,
05/25/2025,21:12:23.30,-12.70,-19.53,984.86,1.62,0.70,-1.04,
05/25/2025,21:12:23.32,-12.70,-23.44,992.19,0.98,2.44,-1.83,
05/25/2025,21:12:23.37,-14.16,-25.39,1000.49,0.82,0.85,1.34,
05/25/2025,21:12:23.39,0.49,-26.86,998.54,1.25,1.92,-2.44,
05/25/2025,21:12:23.41,-5.86,-29.30,988.77,-0.06,3.35,-0.49,
05/25/2025,21:12:23.43,2.44,-21.97,982.42,1.83,2.38,0.12,
05/25/2025,21:12:23.45,-18.07,-21.97,987.79,3.48,-2.87,-3.23,
05/25/2025,21:12:23.47,-18.07,-21.00,993.16,2.56,-1.83,1.65,
05/25/2025,21:12:23.49,0.00,-16.11,991.21,1.65,1.80,0.61,
05/25/2025,21:12:23.51,-6.35,-16.60,1006.35,1.19,3.78,3.41,
05/25/2025,21:12:23.53,-6.35,-18.07,983.40,2.13,1.31,0.18,
05/25/2025,21:12:23.55,2.44,-20.02,1001.46,1.01,3.08,0.34,
05/25/2025,21:12:23.57,-6.84,-38.57,995.12,2.20,1.16,-1.25,
05/25/2025,21:12:23.59,-8.79,-28.32,992.19,3.72,0.82,-2.26,
05/25/2025,21:12:23.61,-4.88,-21.48,991.21,1.74,3.05,-0.61,
05/25/2025,21:12:23.63,-10.25,-20.51,992.68,3.35,3.45,2.01,
05/25/2025,21:12:23.65,-7.81,-18.55,991.70,0.88,0.76,2.16,
05/25/2025,21:12:23.67,-4.39,-13.18,997.07,1.19,2.50,0.52,
05/25/2025,21:12:23.69,2.44,-21.97,991.70,0.43,2.13,-2.20,
05/25/2025,21:12:23.71,0.00,-32.23,991.21,0.49,5.06,0.09,
05/25/2025,21:12:23.73,-3.91,-25.39,989.75,0.55,1.86,-1.43,
05/25/2025,21:12:23.75,-7.81,-23.44,995.12,2.26,2.04,-1.98,
05/25/2025,21:12:23.77,-20.51,-24.90,993.65,3.84,0.70,3.14,
05/25/2025,21:12:23.79,-3.42,-18.55,997.07,0.88,4.33,1.19,
05/25/2025,21:12:23.81,-9.28,-30.76,989.75,0.40,3.38,1.01,
05/25/2025,21:12:23.83,-19.53,-16.11,985.84,0.24,0.64,1.19,
05/25/2025,21:12:23.88,-13.67,-25.88,998.54,3.32,1.52,-0.52,
05/25/2025,21:12:23.90,-15.62,-25.39,992.68,3.20,1.01,2.84,
05/25/2025,21:12:23.92,-13.18,-24.90,994.14,1.95,3.35,-2.99,
05/25/2025,21:12:23.94,-8.30,-26.37,1001.46,1.13,3.32,-1.10,
05/25/2025,21:12:23.96,-14.16,-5.86,997.07,0.85,2.84,0.73,
05/25/2025,21:12:23.98,-21.00,-20.51,1009.28,0.37,3.14,1.10,
05/25/2025,21:12:24.00,-9.28,-24.41,995.61,0.00,1.13,-1.13,
05/25/2025,21:12:24.02,-11.23,-30.76,998.54,1.62,2.62,-0.79,
05/25/2025,21:12:24.04,1.95,-16.60,1002.93,0.43,2.10,-0.85,
05/25/2025,21:12:24.06,-6.84,-23.44,1000.49,0.67,3.75,0.37,
05/25/2025,21:12:24.08,-3.42,-26.37,1004.88,-0.30,2.23,-2.01,
05/25/2025,21:12:24.10,-3.91,-29.79,1004.39,2.20,0.43,0.58,
05/25/2025,21:12:24.12,-8.79,-24.90,1001.95,1.71,2.80,-2.16,
05/25/2025,21:12:24.14,-0.49,-19.53,991.70,2.29,3.41,-5.06,
05/25/2025,21:12:24.16,0.98,-23.93,995.12,1.80,2.74,0.73,
05/25/2025,21:12:24.18,-19.53,-11.23,986.82,2.77,1.80,-1.31,
05/25/2025,21:12:24.20,-8.30,-35.16,1000.49,1.37,4.05,-2.77,
05/25/2025,21:12:24.22,-22.46,-13.67,991.70,2.32,1.71,-1.65,
05/25/2025,21:12:24.24,-16.60,-20.02,1003.42,1.77,0.24,0.73,
05/25/2025,21:12:24.26,-5.37,-27.34,991.70,2.47,2.44,-1.68,
05/25/2025,21:12:24.28,-9.28,-29.79,1000.98,1.19,2.20,2.59,
05/25/2025,21:12:24.30,-9.28,-19.04,997.07,3.11,0.70,-0.24,
05/25/2025,21:12:24.32,-15.62,-20.51,1002.44,4.94,2.10,1.31,
05/25/2025,21:12:24.34,-11.23,-22.95,1001.95,1.22,0.76,2.41,
05/25/2025,21:12:24.39,-6.35,-23.93,1004.88,1.22,0.64,1.01,
05/25/2025,21:12:24.41,1.46,-21.00,995.12,0.55,2.13,-1.16,
05/25/2025,21:12:24.43,-5.37,-22.46,991.70,2.38,3.57,-3.87,
05/25/2025,21:12:24.45,-15.14,-28.32,1002.44,0.58,-0.03,-0.30,
05/25/2025,21:12:24.47,-19.04,-31.74,1002.93,-0.40,2.80,1.80,
05/25/2025,21:12:24.49,-10.25,-23.93,998.54,2.41,-0.73,2.99,
05/25/2025,21:12:24.51,-5.86,-21.48,988.77,2.44,1.68,-0.27,
05/25/2025,21:12:24.53,-14.16,-20.02,990.23,0.43,3.63,0.40,
05/25/2025,21:12:24.55,-24.90,-41.02,1005.86,1.95,0.03,-0.15,
05/25/2025,21:12:24.57,-11.72,-30.76,992.19,1.71,1.37,-2.10,
05/25/2025,21:12:24.59,-9.28,-23.93,992.19,0.76,3.32,0.98,
05/25/2025,21:12:24.61,-18.55,-12.21,1002.93,2.38,-1.13,2.53,
05/25/2025,21:12:24.63,-3.42,-22.46,1002.93,0.49,1.37,2.56,
05/25/2025,21:12:24.65,-14.16,-30.27,990.72,-0.34,1.89,2.20,
05/25/2025,21:12:24.67,-5.37,-33.69,1002.44,-0.52,2.90,-0.55,
05/25/2025,21:12:24.69,-6.35,-21.97,990.23,2.23,2.26,0.03,
05/25/2025,21:12:24.71,-2.93,-21.00,1004.88,0.85,1.19,0.15,
05/25/2025,21:12:24.73,-17.58,-19.53,999.51,1.31,2.65,2.41,
05/25/2025,21:12:24.75,-8.79,-33.20,1002.44,0.00,2.53,1.01,
05/25/2025,21:12:24.77,7.81,-18.07,994.14,3.38,3.26,1.65,
05/25/2025,21:12:24.79,-4.39,-18.55,1003.42,1.92,3.57,-2.53,
05/25/2025,21:12:24.81,-20.51,-34.67,995.61,1.34,3.20,-0.18,
05/25/2025,21:12:24.83,-13.67,-28.81,999.02,2.50,2.68,-2.68,
05/25/2025,21:12:24.85,-0.49,-23.44,991.21,0.09,1.43,-0.58,
05/25/2025,21:12:24.90,0.00,-27.34,997.07,0.46,2.07,1.86,
05/25/2025,21:12:24.92,-10.25,-26.37,989.75,1.74,2.26,-0.30,
05/25/2025,21:12:24.94,-8.79,-26.86,990.72,1.19,0.95,-2.16,
05/25/2025,21:12:24.96,-21.48,-26.37,994.14,0.46,3.96,-2.04,
05/25/2025,21:12:24.98,-6.84,-17.09,998.54,1.22,2.04,-1.43,
05/25/2025,21:12:25.00,-12.21,-22.46,995.12,0.12,-0.18,0.06,
05/25/2025,21:12:25.02,-15.14,-13.18,1006.35,3.41,2.59,1.65,
05/25/2025,21:12:25.04,0.98,-18.07,987.30,0.27,0.06,0.15,
05/25/2025,21:12:25.06,-7.32,-28.81,997.07,3.57,1.95,-1.10,
05/25/2025,21:12:25.08,-2.44,-15.14,989.75,0.82,0.82,0.00,
05/25/2025,21:12:25.10,-10.74,-14.65,1001.46,3.05,-0.21,2.41,
05/25/2025,21:12:25.12,-11.23,-20.02,987.30,-0.09,2.44,1.25,
05/25/2025,21:12:25.14,-11.23,-20.51,996.09,2.77,0.79,1.92,
05/25/2025,21:12:25.16,8.79,-26.37,997.07,1.10,1.34,0.85,
05/25/2025,21:12:25.18,-9.77,-22.46,994.63,3.54,2.04,-0.85,
05/25/2025,21:12:25.20,-4.88,-22.95,985.35,0.52,2.29,-0.79,
05/25/2025,21:12:25.22,-9.28,-28.32,1011.23,0.95,3.11,-2.47,
05/25/2025,21:12:25.24,-4.39,-21.00,998.54,1.95,0.70,-1.40,
05/25/2025,21:12:25.26,-5.86,-23.44,1000.98,1.95,-0.46,0.03,
05/25/2025,21:12:25.28,-3.42,-25.88,1001.46,2.32,2.20,1.83,
05/25/2025,21:12:25.30,-6.35,-37.60,990.72,1.55,3.66,1.40,
05/25/2025,21:12:25.32,-15.62,-28.32,993.16,1.65,1.49,0.37,
05/25/2025,21:12:25.34,-15.14,-28.81,997.56,1.80,0.18,-0.24,
05/25/2025,21:12:25.36,-6.35,-17.09,993.65,1.55,2.84,0.88,
05/25/2025,21:12:25.41,-16.60,-12.70,991.21,2.23,3.29,2.84,
05/25/2025,21:12:25.43,-6.35,-20.02,989.26,0.98,1.37,1.71,
05/25/2025,21:12:25.45,-14.65,-20.02,990.23,-0.06,3.66,-0.49,
05/25/2025,21:12:25.47,-7.32,-21.00,995.61,3.51,3.05,0.64,
05/25/2025,21:12:25.49,-18.07,-28.32,992.19,2.26,2.29,1.07,
05/25/2025,21:12:25.51,0.98,-19.53,997.07,-0.06,0.88,-1.83,
05/25/2025,21:12:25.53,1.95,-22.95,1009.28,1.68,0.70,-0.24,
05/25/2025,21:12:25.55,-15.14,-24.90,1001.95,0.37,1.77,1.22,
05/25/2025,21:12:25.57,1.95,-17.09,1003.91,1.74,1.65,0.64,
05/25/2025,21:12:25.59,-0.49,-27.34,996.09,1.65,4.27,0.58,
05/25/2025,21:12:25.61,-0.49,-18.55,996.58,4.97,4.27,0.49,
05/25/2025,21:12:25.63,-7.81,-29.79,997.07,1.07,4.63,6.80,
05/25/2025,21:12:25.65,-14.16,-25.39,992.68,2.26,3.93,2.44,
05/25/2025,21:12:25.67,-8.30,-17.58,998.05,0.52,2.80,1.98,
05/25/2025,21:12:25.69,-7.32,-23.44,1000.00,-1.04,3.75,1.16,
05/25/2025,21:12:25.71,-15.62,-27.83,996.58,1.37,2.20,0.34,
05/25/2025,21:12:25.73,-8.79,-29.30,991.21,2.20,2.62,2.74,
05/25/2025,21:12:25.75,-15.14,-24.90,1002.93,1.92,0.73,1.16,
05/25/2025,21:12:25.78,-17.58,-36.13,1003.91,1.43,1.31,-3.93,
05/25/2025,21:12:25.80,-21.00,-20.02,988.77,1.89,1.98,-3.38,
05/25/2025,21:12:25.82,-1.46,-31.74,991.70,-0.67,1.68,-0.76,
05/25/2025,21:12:25.84,-22.46,-21.97,1000.00,1.92,2.07,-1.31,
05/25/2025,21:12:25.86,-21.48,-32.23,993.16,3.17,2.04,0.88,
05/25/2025,21:12:25.88,-18.55,-8.30,1000.98,2.93,-0.09,0.30,
05/25/2025,21:12:25.92,-16.60,-26.86,997.07,0.64,2.47,-3.81,
05/25/2025,21:12:25.94,-5.86,-34.67,989.75,-0.58,2.07,-3.69,
05/25/2025,21:12:25.96,-7.32,-24.41,991.21,0.85,1.89,1.68,
05/25/2025,21:12:25.98,-9.77,-28.32,980.47,2.23,2.01,0.09,
05/25/2025,21:12:26.00,-0.98,-28.81,1006.84,1.95,2.38,5.70,
05/25/2025,21:12:26.02,-9.77,-22.95,1001.95,2.59,1.43,-0.88,
05/25/2025,21:12:26.05,-9.28,-23.93,1005.37,1.95,-0.21,-2.32,
05/25/2025,21:12:26.07,-15.14,-19.53,1000.00,2.65,1.65,0.49,
05/25/2025,21:12:26.09,-8.30,-14.65,996.09,1.16,1.68,2.56,
05/25/2025,21:12:26.11,-4.39,-26.86,989.75,1.59,-0.24,1.34,
05/25/2025,21:12:26.13,-18.07,-19.04,991.70,2.01,-1.34,1.07,
05/25/2025,21:12:26.15,-16.11,-19.04,997.07,2.62,3.11,0.34,
05/25/2025,21:12:26.17,-12.70,-24.90,1003.91,2.38,-0.24,-3.11,
05/25/2025,21:12:26.19,1.46,-14.65,994.63,2.71,2.10,-0.88,
05/25/2025,21:12:26.21,-18.55,-24.41,1000.49,0.34,1.80,0.58,
05/25/2025,21:12:26.23,-9.77,-25.88,992.68,2.01,3.90,1.77,
05/25/2025,21:12:26.25,-6.35,-23.93,985.35,0.58,0.85,-0.30,
05/25/2025,21:12:26.27,-1.46,-24.41,988.28,1.34,1.98,0.79,
05/25/2025,21:12:26.29,-14.65,-26.86,997.07,1.04,0.79,2.04,
05/25/2025,21:12:26.31,-13.18,-21.97,999.02,1.80,2.77,1.01,
05/25/2025,21:12:26.33,-21.00,-18.55,1010.25,0.12,0.06,-0.46,
05/25/2025,21:12:26.35,-18.55,-27.34,1004.39,-0.12,1.22,-2.47,
05/25/2025,21:12:26.37,-10.74,-24.90,1000.98,1.28,0.37,-0.55,
05/25/2025,21:12:26.39,-11.72,-19.04,1002.93,1.71,2.16,-1.04,
05/25/2025,21:12:26.44,-11.72,-20.51,987.30,1.22,3.72,-1.07,
05/25/2025,21:12:26.46,-4.39,-25.88,991.70,2.13,1.65,0.00,
05/25/2025,21:12:26.48,-4.88,-23.44,1004.39,-0.15,3.14,-1.59,
05/25/2025,21:12:26.50,-4.39,-25.88,1006.35,1.31,1.34,-1.46,
05/25/2025,21:12:26.52,-2.44,-21.97,996.58,2.20,0.91,-4.30,
05/25/2025,21:12:26.54,0.00,-19.53,1002.44,0.00,0.55,-0.64,
05/25/2025,21:12:26.56,-11.23,-18.55,996.09,0.49,2.13,1.77,
05/25/2025,21:12:26.58,-7.32,-22.46,989.75,-1.49,1.55,-0.09,
05/25/2025,21:12:26.60,-7.81,-32.71,999.51,2.35,3.38,-0.61,
05/25/2025,21:12:26.62,-8.79,-28.32,1010.25,1.83,5.34,-2.44,
05/25/2025,21:12:26.64,8.79,-20.02,1002.44,1.37,2.87,0.76,
05/25/2025,21:12:26.66,-10.25,-21.00,990.72,2.77,2.38,0.58,
05/25/2025,21:12:26.68,0.49,-21.48,990.72,2.04,2.90,-1.77,
05/25/2025,21:12:26.70,-9.28,-21.00,1012.21,-1.01,3.54,1.80,
05/25/2025,21:12:26.72,-23.93,-25.39,999.51,0.82,1.31,-1.55,
05/25/2025,21:12:26.74,-12.70,-29.30,994.63,1.37,1.43,0.98,
05/25/2025,21:12:26.76,-7.32,-20.02,1007.81,1.52,0.24,-4.79,
05/25/2025,21:12:26.78,-16.11,-17.09,1004.88,1.62,2.20,0.76,
05/25/2025,21:12:26.80,-1.46,-25.39,1004.88,0.79,1.68,0.00,
05/25/2025,21:12:26.82,-11.23,-20.02,1007.81,0.18,-0.21,-0.79,
05/25/2025,21:12:26.84,-19.04,-25.39,1008.30,0.27,2.68,-0.49,
05/25/2025,21:12:26.86,1.46,-28.81,993.65,3.60,1.34,1.77,
05/25/2025,21:12:26.88,-2.44,-19.04,999.02,1.89,2.10,-1.25,
05/25/2025,21:12:26.90,-9.28,-25.39,992.19,1.86,2.68,-0.37,
05/25/2025,21:12:26.95,-25.39,-30.27,993.65,-0.82,2.68,-2.77,
05/25/2025,21:12:26.97,-14.65,-22.95,1003.42,3.26,1.92,0.03,
05/25/2025,21:12:26.99,-14.65,-29.79,989.26,2.56,2.80,1.31,
05/25/2025,21:12:27.01,-1.95,-19.53,995.61,4.42,0.55,2.20,
05/25/2025,21:12:27.04,0.49,-18.55,999.02,2.16,2.32,0.43,
05/25/2025,21:12:27.06,-11.23,-21.97,991.70,2.01,3.05,-2.23,
05/25/2025,21:12:27.08,-13.67,-30.76,1005.86,1.83,1.65,-0.52,
05/25/2025,21:12:27.10,-10.74,-24.41,990.72,0.03,3.78,-2.65,
05/25/2025,21:12:27.12,-17.09,-19.53,995.61,1.68,1.71,-3.96,
05/25/2025,21:12:27.14,-14.65,-21.48,993.16,1.34,2.65,-1.01,
05/25/2025,21:12:27.16,-15.14,-28.81,994.63,2.01,1.77,0.27,
05/25/2025,21:12:27.18,-9.28,-13.18,991.70,0.70,1.10,0.24,
05/25/2025,21:12:27.20,-7.81,-30.27,986.33,0.61,2.16,-1.62,
05/25/2025,21:12:27.22,-10.25,-20.51,993.16,1.62,3.14,-1.98,
05/25/2025,21:12:27.24,-3.91,-7.32,999.51,0.03,3.78,-2.50,
05/25/2025,21:12:27.26,-19.04,-24.41,993.65,2.68,3.29,0.27,
05/25/2025,21:12:27.28,-20.51,-25.88,988.77,0.18,3.14,0.30,
05/25/2025,21:12:27.30,-3.91,-35.16,987.79,0.61,3.02,0.00,
05/25/2025,21:12:27.32,-16.11,-21.97,992.19,1.25,-0.46,-1.62,
05/25/2025,21:12:27.34,-31.25,-21.00,995.61,1.10,2.13,-1.22,
05/25/2025,21:12:27.36,-32.23,-35.16,998.54,1.13,2.23,2.23,
05/25/2025,21:12:27.38,-3.91,-28.81,992.68,0.82,4.73,0.15,
05/25/2025,21:12:27.40,-8.30,-23.93,993.65,1.95,-0.15,-2.23,
05/25/2025,21:12:27.42,-11.72,-21.97,992.19,2.93,2.96,-1.74,
05/25/2025,21:12:27.47,-1.46,-31.74,1003.42,1.43,2.80,-2.93,
05/25/2025,21:12:27.49,-15.14,-31.74,1002.93,2.47,1.04,0.49,
05/25/2025,21:12:27.51,-6.84,-28.81,997.56,3.05,0.91,1.49,
05/25/2025,21:12:27.53,-20.02,-24.90,1013.18,3.23,2.71,-0.82,
05/25/2025,21:12:27.55,-2.93,-22.46,996.09,0.98,3.75,-1.16,
05/25/2025,21:12:27.57,-12.21,-27.83,997.07,2.74,1.13,3.05,
05/25/2025,21:12:27.59,-5.86,-35.64,1001.46,2.01,0.46,-2.53,
05/25/2025,21:12:27.61,-13.18,-13.18,1003.91,1.98,3.51,3.35,
05/25/2025,21:12:27.63,-5.86,-25.39,1007.81,-0.30,-0.37,2.77,
05/25/2025,21:12:27.65,-11.72,-22.46,990.72,0.79,0.98,-2.20,
05/25/2025,21:12:27.67,-6.35,-25.88,999.02,1.01,4.39,-1.13,
05/25/2025,21:12:27.69,-12.70,-29.30,1007.32,0.64,-0.15,2.26,
05/25/2025,21:12:27.71,8.79,-18.55,1005.37,2.41,0.73,0.03,
05/25/2025,21:12:27.73,-11.72,-21.97,997.07,1.40,0.95,1.92,
05/25/2025,21:12:27.75,-18.07,-24.90,1004.39,-1.89,1.74,-3.05,
05/25/2025,21:12:27.77,-9.28,-19.04,989.26,2.01,3.60,-2.29,
05/25/2025,21:12:27.79,-7.81,-19.04,1000.00,-0.18,3.75,-1.28,
05/25/2025,21:12:27.81,-8.30,-19.53,985.35,0.85,1.46,-2.29,
05/25/2025,21:12:27.83,-21.48,-29.79,1004.39,-1.22,2.80,-2.68,
05/25/2025,21:12:27.85,-11.23,-40.04,994.63,0.43,1.98,0.73,
05/25/2025,21:12:27.87,-14.16,-25.39,994.14,1.68,2.84,0.06,
05/25/2025,21:12:27.89,-14.16,-25.88,995.61,-0.64,2.44,-2.80,
05/25/2025,21:12:27.91,-11.72,-24.41,988.77,3.02,3.66,0.03,
05/25/2025,21:12:27.93,-3.91,-15.14,992.68,2.23,0.79,-0.15,
05/25/2025,21:12:27.98,-16.60,-14.16,1000.49,0.30,0.98,2.41,
05/25/2025,21:12:28.00,-10.74,-13.67,993.16,3.93,1.86,-1.22,
05/25/2025,21:12:28.02,-11.72,-30.27,997.07,-0.67,3.23,-0.91,
05/25/2025,21:12:28.04,-8.30,-26.37,995.61,1.22,4.88,-0.58,
05/25/2025,21:12:28.06,-17.58,-21.48,1000.98,2.50,2.62,1.65,
05/25/2025,21:12:28.08,-10.74,-24.90,996.58,2.87,1.16,1.40,
05/25/2025,21:12:28.10,-5.86,-12.21,993.16,0.03,1.04,-1.13,
05/25/2025,21:12:28.12,-21.00,-29.30,995.12,0.95,1.10,1.25,
05/25/2025,21:12:28.14,-21.48,-17.09,998.05,2.32,1.55,-0.30,
05/25/2025,21:12:28.16,-6.84,-24.90,998.54,2.71,1.62,-0.58,
05/25/2025,21:12:28.18,-4.39,-27.83,1004.88,2.41,0.88,0.88,
05/25/2025,21:12:28.20,-6.35,-29.30,1002.93,3.96,-0.03,-0.76,
05/25/2025,21:12:28.22,-15.62,-17.09,989.75,-0.21,0.58,-2.90,
05/25/2025,21:12:28.24,-4.88,-19.53,999.51,1.22,2.10,-2.56,
05/25/2025,21:12:28.26,-9.28,-18.07,1001.95,2.77,2.32,-3.11,
05/25/2025,21:12:28.28,-11.72,-28.81,998.05,-0.09,-0.49,0.37,
05/25/2025,21:12:28.30,-6.84,-15.62,1000.00,1.01,1.28,-2.10,
05/25/2025,21:12:28.32,-13.67,-27.83,1002.93,2.56,0.82,0.15,
05/25/2025,21:12:28.34,1.46,-18.55,994.63,2.56,0.34,-1.80,
05/25/2025,21:12:28.36,-16.11,-30.76,998.05,0.95,1.19,-1.10,
05/25/2025,21:12:28.38,-11.23,-21.00,987.79,1.28,0.70,-2.29,
05/25/2025,21:12:28.40,-12.21,-19.04,992.68,2.62,0.12,0.12,
05/25/2025,21:12:28.42,-8.79,-10.25,989.26,1.62,1.01,-2.50,
05/25/2025,21:12:28.44,-13.18,-18.07,991.21,1.37,1.55,-0.30,
05/25/2025,21:12:28.49,1.95,-19.04,1000.00,0.46,1.74,1.55,
05/25/2025,21:12:28.51,0.00,-29.30,997.56,1.98,1.13,0.21,
05/25/2025,21:12:28.53,-4.88,-32.23,995.61,1.77,1.68,0.76,
05/25/2025,21:12:28.55,-12.70,-29.30,987.30,2.01,1.71,-0.52,
05/25/2025,21:12:28.57,-20.51,-39.55,990.23,2.53,-0.03,-0.95,
05/25/2025,21:12:28.59,-0.98,-26.86,998.54,1.46,1.86,-1.65,
05/25/2025,21:12:28.61,-10.74,-11.72,1002.44,1.71,1.86,-2.68,
05/25/2025,21:12:28.63,-5.37,-18.07,994.63,0.15,-0.98,0.24,
05/25/2025,21:12:28.65,-0.98,-6.35,995.12,2.77,1.13,0.30,
05/25/2025,21:12:28.67,1.46,-13.18,992.68,2.23,3.38,-3.57,
05/25/2025,21:12:28.69,-6.35,-30.27,1007.32,2.53,3.35,-1.28,
05/25/2025,21:12:28.71,-9.28,-17.58,991.21,0.30,1.43,2.53,
05/25/2025,21:12:28.73,-17.09,-21.00,990.72,1.31,1.37,3.90,
05/25/2025,21:12:28.75,-6.35,-25.39,1000.98,1.95,1.62,0.43,
05/25/2025,21:12:28.77,-7.81,-22.46,995.12,3.75,1.13,0.95,
05/25/2025,21:12:28.79,-7.32,-16.60,995.12,-0.27,2.65,1.43,
05/25/2025,21:12:28.81,-7.32,-14.65,996.58,1.86,3.54,-2.68,
05/25/2025,21:12:28.83,3.42,-27.34,1005.86,0.85,2.23,1.89,
05/25/2025,21:12:28.85,-19.53,-21.00,1010.74,0.21,1.65,-1.83,
05/25/2025,21:12:28.87,-27.83,-17.09,990.72,0.46,2.50,-0.79,
05/25/2025,21:12:28.89,-20.02,-29.30,1007.32,2.23,3.17,-1.98,
05/25/2025,21:12:28.91,-9.77,-31.25,990.23,2.10,2.32,1.98,
05/25/2025,21:12:28.93,-4.39,-24.41,995.12,0.76,2.41,-0.49,
05/25/2025,21:12:28.95,-1.46,-25.88,998.54,0.70,4.05,0.15,
05/25/2025,21:12:29.00,-7.81,-28.81,994.63,3.87,2.71,3.17,
05/25/2025,21:12:29.02,-10.74,-24.41,991.21,1.19,2.35,-1.19,
05/25/2025,21:12:29.04,-1.95,-33.20,1004.39,0.43,4.09,1.77,
05/25/2025,21:12:29.06,-9.77,-33.69,978.52,-0.46,2.84,-1.46,
05/25/2025,21:12:29.08,-13.67,-19.53,1002.44,1.68,0.88,-0.37,
05/25/2025,21:12:29.10,-11.23,-14.65,988.28,1.37,1.46,1.95,
05/25/2025,21:12:29.12,-10.74,-28.32,998.05,0.88,3.38,3.26,
05/25/2025,21:12:29.14,-12.21,-20.02,993.16,1.55,1.31,1.22,
05/25/2025,21:12:29.16,-15.14,-23.44,991.70,0.27,1.01,-2.53,
05/25/2025,21:12:29.18,1.95,-25.39,982.42,0.67,2.77,-4.70,
05/25/2025,21:12:29.20,-16.11,-28.32,1006.35,1.37,2.68,1.37,
05/25/2025,21:12:29.22,-10.25,-26.37,1002.93,0.73,2.59,1.13,
05/25/2025,21:12:29.24,-15.14,-14.16,988.28,2.10,2.96,-0.34,
05/25/2025,21:12:29.26,-18.55,-32.23,1009.77,0.27,3.78,-0.24,
05/25/2025,21:12:29.28,-4.88,-11.72,994.63,2.41,1.55,-0.70,
05/25/2025,21:12:29.30,-20.02,-26.37,993.16,2.84,0.79,-2.01,
05/25/2025,21:12:29.32,-20.02,-20.02,988.28,-0.76,1.74,-2.29,
05/25/2025,21:12:29.34,-6.35,-27.83,990.72,1.52,0.70,-2.29,
05/25/2025,21:12:29.36,-5.86,-14.16,995.12,1.62,2.35,1.31,
05/25/2025,21:12:29.38,2.44,-21.97,991.21,1.83,1.25,-1.31,
05/25/2025,21:12:29.40,-14.16,-17.09,991.21,3.20,2.47,-1.74,
05/25/2025,21:12:29.42,-8.30,-27.83,996.09,0.64,2.13,-0.82,
05/25/2025,21:12:29.44,-15.14,-12.21,993.65,2.29,1.59,-1.95,
05/25/2025,21:12:29.46,-12.21,-21.48,996.58,1.43,1.40,-2.23,
05/25/2025,21:12:29.51,-15.62,-27.83,1006.84,0.09,3.66,1.31,
05/25/2025,21:12:29.53,-11.72,-11.72,994.14,2.10,2.01,1.83,
05/25/2025,21:12:29.55,-5.86,-26.37,989.75,0.67,3.20,0.70,
05/25/2025,21:12:29.57,-9.28,-12.70,990.72,3.08,3.48,0.55,
05/25/2025,21:12:29.59,-20.02,-19.53,1000.49,1.71,-0.52,-0.18,
05/25/2025,21:12:29.61,-11.23,-22.95,984.38,1.40,3.23,-3.99,
05/25/2025,21:12:29.63,-9.77,-27.34,1002.93,0.37,1.31,0.73,
05/25/2025,21:12:29.65,-11.23,-17.58,1002.44,-0.09,0.37,-1.34,
05/25/2025,21:12:29.67,-9.28,-16.11,1000.00,-0.15,3.38,-2.04,
05/25/2025,21:12:29.69,-20.02,-20.02,991.70,0.91,0.58,5.34,
05/25/2025,21:12:29.71,-13.67,-19.04,1000.49,2.23,2.41,-1.28,
05/25/2025,21:12:29.73,-11.23,-21.48,998.54,0.64,3.32,-0.98,
05/25/2025,21:12:29.75,-2.44,-24.41,993.16,0.37,3.99,-0.67,
05/25/2025,21:12:29.77,-12.70,-15.62,999.02,0.40,2.96,2.77,
05/25/2025,21:12:29.79,-13.18,-23.44,992.19,1.71,1.80,-0.24,
05/25/2025,21:12:29.81,-8.30,-30.76,988.28,1.25,1.34,-2.10,
05/25/2025,21:12:29.83,-15.62,-24.90,1000.00,0.52,3.11,-2.20,
05/25/2025,21:12:29.85,-7.32,-27.34,998.05,-0.30,2.04,0.67,
05/25/2025,21:12:29.87,3.91,-23.93,995.61,2.07,0.91,0.12,
05/25/2025,21:12:29.89,-0.49,-20.02,990.23,0.37,0.49,-0.30,
05/25/2025,21:12:29.91,0.00,-30.76,989.75,2.71,0.58,-0.70,
05/25/2025,21:12:29.93,-12.70,-14.16,1007.32,2.68,1.98,-0.82,
05/25/2025,21:12:29.95,-27.83,-27.83,992.19,3.29,-0.58,-0.18,
05/25/2025,21:12:29.97,-20.02,-32.23,1003.42,-1.19,2.35,-0.79,
05/25/2025,21:12:30.02,-11.23,-19.04,1001.95,0.00,0.55,-1.55,
05/25/2025,21:12:30.04,-10.25,-14.16,998.05,3.02,-0.06,0.24,
05/25/2025,21:12:30.06,-17.09,-23.44,1003.42,1.71,3.29,-1.95,
05/25/2025,21:12:30.08,-15.14,-29.79,1006.84,2.50,1.83,-2.44,
05/25/2025,21:12:30.10,-14.16,-18.07,989.75,0.24,0.21,-3.35,
05/25/2025,21:12:30.12,-13.18,-17.09,992.68,3.38,3.38,1.46,
05/25/2025,21:12:30.14,-14.65,-15.62,994.14,1.62,2.32,-1.10,
05/25/2025,21:12:30.16,-13.67,-25.88,1001.95,-0.82,0.34,-0.70,
05/25/2025,21:12:30.18,-13.67,-25.39,1009.77,0.09,1.92,-2.59,
05/25/2025,21:12:30.20,-2.44,-18.07,1000.00,0.79,1.40,-2.44,
05/25/2025,21:12:30.22,-13.18,-24.90,1009.77,-0.03,1.52,-1.22,
05/25/2025,21:12:30.24,-17.58,-28.81,997.56,1.74,0.06,-1.40,
05/25/2025,21:12:30.26,3.91,-14.16,998.05,3.08,1.40,2.65,
05/25/2025,21:12:30.28,-13.67,-37.60,993.65,0.15,1.28,2.32,
05/25/2025,21:12:30.30,-14.16,-15.62,1000.00,0.88,1.86,3.99,
05/25/2025,21:12:30.32,-8.30,-34.67,1000.00,2.68,2.68,0.18,
05/25/2025,21:12:30.34,-4.88,-12.70,1003.91,1.65,3.14,-1.25,
05/25/2025,21:12:30.36,-15.14,-19.04,987.79,2.53,3.96,-1.34,
05/25/2025,21:12:30.38,-2.93,-27.34,1001.46,-0.06,1.19,0.30,
05/25/2025,21:12:30.40,-15.62,-20.02,997.56,-0.88,2.93,0.88,
05/25/2025,21:12:30.42,-22.95,-25.39,996.09,1.43,3.26,1.01,
05/25/2025,21:12:30.44,-29.79,-8.30,989.75,1.49,4.09,1.74,
05/25/2025,21:12:30.46,-18.07,-22.46,997.07,1.37,1.77,0.58,
05/25/2025,21:12:30.48,-14.16,-28.32,999.02,1.52,2.44,-2.87,
05/25/2025,21:12:30.53,-17.09,-10.74,992.68,4.24,4.66,1.92,
05/25/2025,21:12:30.55,-13.67,-27.34,994.63,0.61,2.44,-4.76,
05/25/2025,21:12:30.57,-6.84,-21.48,998.54,2.20,0.70,0.67,
05/25/2025,21:12:30.59,-0.49,-19.04,992.19,0.79,2.96,0.98,
05/25/2025,21:12:30.61,5.86,-27.34,1000.98,1.28,1.86,2.77,
05/25/2025,21:12:30.63,-9.77,-26.37,994.14,1.31,1.04,0.30,
05/25/2025,21:12:30.65,-8.30,-26.86,997.07,0.98,1.68,2.96,
05/25/2025,21:12:30.67,-14.65,-20.51,989.75,3.29,1.46,-1.46,
05/25/2025,21:12:30.69,-9.77,-19.53,985.35,1.01,0.34,-1.25,
05/25/2025,21:12:30.71,-9.77,-17.09,989.75,1.68,1.92,0.85,
05/25/2025,21:12:30.73,-10.74,-32.71,995.12,-0.21,-0.73,0.55,
05/25/2025,21:12:30.75,-6.35,-13.67,1003.91,1.46,0.18,3.23,
05/25/2025,21:12:30.77,-4.88,-23.44,1008.30,1.16,0.67,1.10,
05/25/2025,21:12:30.79,-5.37,-23.44,1004.88,2.80,0.88,0.27,
05/25/2025,21:12:30.81,-10.25,-33.69,991.70,-0.12,-0.70,-1.52,
05/25/2025,21:12:30.83,-5.37,-15.14,1000.00,0.67,3.84,-2.93,
05/25/2025,21:12:30.85,-10.74,-21.00,993.65,0.06,1.43,0.91,
05/25/2025,21:12:30.87,-13.67,-32.23,991.21,0.03,2.01,-3.63,
05/25/2025,21:12:30.89,-15.14,-30.76,1000.49,0.98,1.07,-2.10,
05/25/2025,21:12:30.91,-9.77,-18.55,991.21,2.77,2.87,-3.45,
05/25/2025,21:12:30.93,-10.74,-24.41,1001.46,0.91,2.16,-2.04,
05/25/2025,21:12:30.95,-10.74,-15.62,1000.98,1.01,1.74,1.40,
05/25/2025,21:12:30.97,-14.16,-29.79,998.54,1.86,2.80,3.14,
05/25/2025,21:12:30.99,-15.62,-21.48,1008.30,2.26,1.98,-2.04,
05/25/2025,21:12:31.04,-20.51,-26.37,996.58,1.25,1.04,-0.24,
05/25/2025,21:12:31.06,-6.35,-25.39,998.05,1.86,1.65,0.64,
05/25/2025,21:12:31.08,-10.25,-23.93,989.75,2.93,3.57,1.71,
05/25/2025,21:12:31.10,-21.97,-30.27,994.63,3.32,1.40,0.15,
05/25/2025,21:12:31.12,-24.41,-23.93,999.02,1.92,1.86,-1.28,
05/25/2025,21:12:31.14,-16.11,-22.95,999.02,2.10,2.50,-0.18,
05/25/2025,21:12:31.16,-7.81,-24.90,1008.79,2.93,1.68,-0.03,
05/25/2025,21:12:31.18,-5.86,-17.58,993.16,4.27,0.73,2.44,
05/25/2025,21:12:31.20,-17.58,-25.39,996.58,1.98,0.34,2.62,
05/25/2025,21:12:31.22,-22.46,-21.97,999.51,1.19,1.10,-0.12,
05/25/2025,21:12:31.24,-8.30,-16.11,999.51,1.40,2.44,-1.01,
05/25/2025,21:12:31.26,-7.32,-31.25,1005.37,1.28,1.34,0.64,
05/25/2025,21:12:31.28,-14.65,-11.72,992.19,3.20,1.43,-0.61,
05/25/2025,21:12:31.30,-14.65,-18.55,1006.84,2.56,1.74,3.02,
05/25/2025,21:12:31.32,-17.58,-19.53,997.56,2.32,0.34,3.78,
05/25/2025,21:12:31.34,-1.46,-32.23,990.72,1.59,2.87,3.54,
05/25/2025,21:12:31.36,-18.07,-20.02,1004.39,1.89,1.95,2.65,
05/25/2025,21:12:31.38,-5.37,-11.72,1004.39,-0.24,1.49,0.55,
05/25/2025,21:12:31.40,-5.86,-11.72,998.54,3.14,1.95,-0.73,
05/25/2025,21:12:31.42,-1.46,-20.02,1000.00,-0.18,0.09,-0.70,
05/25/2025,21:12:31.44,-6.35,-21.48,994.14,2.90,2.35,-0.58,
05/25/2025,21:12:31.46,-13.18,-21.97,997.07,0.09,2.77,-2.26,
05/25/2025,21:12:31.48,-13.67,-20.51,1000.49,1.22,2.59,1.74,
05/25/2025,21:12:31.50,-0.98,-21.48,999.02,0.40,2.41,0.91,
05/25/2025,21:12:31.56,-19.04,-17.09,1002.93,2.84,-0.64,-1.19,
05/25/2025,21:12:31.58,-7.32,-31.74,1001.95,2.62,1.74,1.40,
05/25/2025,21:12:31.60,-18.07,-24.90,1003.42,2.07,0.09,1.37,
05/25/2025,21:12:31.62,-6.84,-23.93,989.75,1.37,2.50,-0.88,
05/25/2025,21:12:31.64,-8.30,-28.32,993.16,-0.40,1.65,-0.91,
05/25/2025,21:12:31.66,-5.37,-17.58,994.14,2.01,1.68,0.55,
05/25/2025,21:12:31.68,-15.62,-12.21,987.79,2.74,1.52,0.91,
05/25/2025,21:12:31.70,5.37,-6.35,988.77,1.16,1.16,0.55,
05/25/2025,21:12:31.72,-11.72,-25.39,997.56,3.96,3.51,-1.25,
05/25/2025,21:12:31.74,-6.84,-16.11,997.56,2.35,2.35,1.10,
05/25/2025,21:12:31.76,-15.62,-21.00,992.68,-0.03,2.87,-1.28,
05/25/2025,21:12:31.78,-26.86,-22.95,1000.00,3.05,-0.49,-1.34,
05/25/2025,21:12:31.80,-10.25,-33.20,1002.93,1.71,1.07,-3.81,
05/25/2025,21:12:31.82,-24.90,-20.02,992.19,3.81,0.06,-3.38,
05/25/2025,21:12:31.84,-21.00,-17.09,993.16,2.53,0.91,-0.12,
05/25/2025,21:12:31.86,-6.35,-27.34,993.16,0.06,2.77,0.24,
05/25/2025,21:12:31.88,-17.58,-8.79,1001.95,0.98,4.57,-5.12,
05/25/2025,21:12:31.90,-4.88,-19.04,1009.77,2.38,2.01,1.80,
05/25/2025,21:12:31.92,-14.16,-17.09,1005.37,0.55,2.07,-1.40,
05/25/2025,21:12:31.94,-8.30,-16.11,982.91,0.79,2.90,1.86,
05/25/2025,21:12:31.96,-13.18,-13.18,1000.98,1.49,2.80,2.90,
05/25/2025,21:12:31.98,-27.34,-24.90,994.14,2.99,3.41,-0.85,
05/25/2025,21:12:32.00,-8.79,-26.37,993.16,1.19,2.13,-3.20,
05/25/2025,21:12:32.02,-16.11,-14.65,990.72,1.65,1.04,-2.16,
05/25/2025,21:12:32.07,-1.46,-22.46,986.33,1.77,2.71,-1.77,
05/25/2025,21:12:32.09,-21.00,-26.37,1000.98,0.95,3.32,-0.82,
05/25/2025,21:12:32.11,-5.86,-18.07,998.54,0.09,2.16,0.98,
05/25/2025,21:12:32.13,-10.25,-19.53,1006.84,0.52,2.90,0.30,
05/25/2025,21:12:32.15,-18.55,-11.72,1004.39,1.83,2.59,-1.16,
05/25/2025,21:12:32.17,-22.46,-20.51,983.40,0.95,0.64,1.89,
05/25/2025,21:12:32.19,-9.28,-14.65,996.58,2.23,0.82,0.27,
05/25/2025,21:12:32.21,-9.28,-22.46,991.70,0.98,2.04,-1.49,
05/25/2025,21:12:32.23,-19.04,-30.76,995.12,1.89,2.53,-0.15,
05/25/2025,21:12:32.25,-6.35,-14.65,1005.86,0.24,1.43,1.52,
05/25/2025,21:12:32.27,-21.48,-30.76,993.65,2.32,1.74,-0.27,
05/25/2025,21:12:32.29,-7.32,-18.07,998.05,2.20,2.71,1.10,
05/25/2025,21:12:32.32,-16.11,-19.53,994.63,0.73,0.40,2.90,
05/25/2025,21:12:32.34,-8.30,-24.90,992.19,0.43,2.07,-2.16,
05/25/2025,21:12:32.36,-16.60,-31.25,978.03,1.65,1.01,-1.80,
05/25/2025,21:12:32.38,-22.46,-19.04,994.14,3.81,0.79,0.24,
05/25/2025,21:12:32.40,-21.48,-20.51,997.56,2.80,0.58,-2.23,
05/25/2025,21:12:32.42,-11.72,-17.09,984.38,2.35,0.73,-3.57,
05/25/2025,21:12:32.44,-23.44,-36.13,996.58,3.96,0.09,-0.30,
05/25/2025,21:12:32.46,-28.32,-18.07,995.12,2.20,3.41,-2.13,
05/25/2025,21:12:32.48,-18.55,-26.37,1002.93,2.38,3.05,-0.37,
05/25/2025,21:12:32.50,-14.16,-24.41,999.51,1.65,0.34,2.13,
05/25/2025,21:12:32.52,-2.93,-21.00,982.42,3.05,1.46,0.61,
05/25/2025,21:12:32.54,-20.51,-29.79,1000.00,2.96,-0.61,-4.12,
05/25/2025,21:12:32.58,-14.16,-27.34,994.63,2.53,1.07,1.28,
05/25/2025,21:12:32.60,-4.39,-31.74,997.07,1.83,2.65,0.09,
05/25/2025,21:12:32.63,-8.79,-26.86,1002.44,0.88,1.37,-4.30,
05/25/2025,21:12:32.65,-17.58,-21.00,996.09,2.68,0.27,-1.40,
05/25/2025,21:12:32.67,-20.02,-26.86,985.35,3.14,0.82,0.18,
05/25/2025,21:12:32.69,-7.32,-19.04,1002.44,0.43,4.24,-0.73,
05/25/2025,21:12:32.71,-6.84,-6.84,998.54,0.06,3.20,0.03,
05/25/2025,21:12:32.73,-3.42,-26.86,992.19,0.24,1.59,0.76,
05/25/2025,21:12:32.75,-13.67,-22.95,1000.49,1.46,0.18,-1.37,
05/25/2025,21:12:32.77,-9.77,-30.76,990.23,1.10,0.46,-4.91,
05/25/2025,21:12:32.79,-19.53,-20.02,990.72,1.04,1.80,-1.40,
05/25/2025,21:12:32.81,-17.58,-30.76,994.63,1.46,1.95,-0.98,
05/25/2025,21:12:32.83,-1.46,-22.95,998.54,1.22,2.47,0.67,
05/25/2025,21:12:32.85,-21.97,-22.46,996.09,2.16,1.59,-0.15,
05/25/2025,21:12:32.87,0.98,-30.27,995.61,0.40,2.29,0.73,
05/25/2025,21:12:32.89,-21.97,-29.79,991.70,0.85,5.12,-1.13,
05/25/2025,21:12:32.91,-15.14,-24.41,995.12,1.92,1.10,-1.77,
05/25/2025,21:12:32.93,-9.77,-29.79,999.02,1.31,1.04,0.79,
05/25/2025,21:12:32.95,-13.67,-22.95,999.02,1.86,0.15,-0.03,
05/25/2025,21:12:32.97,-21.00,-23.93,1010.74,2.62,3.84,1.55,
05/25/2025,21:12:32.99,-16.11,-14.16,995.12,0.85,4.24,-2.50,
05/25/2025,21:12:33.01,-13.67,-17.58,993.65,0.88,2.01,1.13,
05/25/2025,21:12:33.03,-4.39,-21.00,994.63,3.26,1.92,4.45,
05/25/2025,21:12:33.05,-2.44,-17.58,984.86,2.77,3.23,0.12,
05/25/2025,21:12:33.10,-8.30,-19.04,982.91,0.34,2.50,1.68,
05/25/2025,21:12:33.12,-13.67,-21.48,982.42,0.34,0.79,-4.21,
05/25/2025,21:12:33.14,-15.62,-27.83,991.21,-0.12,4.66,0.76,
05/25/2025,21:12:33.16,-9.77,-30.27,1004.39,0.82,2.23,-1.77,
05/25/2025,21:12:33.18,-11.23,-18.55,996.09,2.41,0.12,-2.74,
05/25/2025,21:12:33.20,-8.30,-20.02,997.56,2.90,3.20,-0.61,
05/25/2025,21:12:33.22,-9.77,-21.48,994.14,2.62,2.90,-0.98,
05/25/2025,21:12:33.24,-15.62,-30.76,993.16,0.15,1.16,1.13,
05/25/2025,21:12:33.26,-2.93,-38.09,990.72,0.88,3.93,-0.09,
05/25/2025,21:12:33.28,-22.46,-30.27,987.79,1.37,2.01,-1.80,
05/25/2025,21:12:33.30,-21.97,-21.48,1002.44,0.88,-0.06,-1.95,
05/25/2025,21:12:33.32,-2.44,-17.09,996.58,3.48,2.47,-3.96,
05/25/2025,21:12:33.34,-14.65,-22.46,995.61,2.41,0.24,-1.07,
05/25/2025,21:12:33.36,-12.70,-23.44,996.58,0.03,2.65,-1.40,
05/25/2025,21:12:33.38,-14.65,-33.69,1000.00,2.01,2.53,0.03,
05/25/2025,21:12:33.40,-3.91,-18.55,992.19,3.45,1.95,-2.16,
05/25/2025,21:12:33.42,-24.90,-29.79,989.75,2.16,1.68,1.55,
05/25/2025,21:12:33.44,-21.48,-20.02,995.12,1.80,0.00,-2.84,
05/25/2025,21:12:33.46,-6.84,-32.71,1006.35,0.98,3.38,0.52,
05/25/2025,21:12:33.48,-8.30,-1.95,1012.21,2.20,1.31,-0.55,
05/25/2025,21:12:49.33,-11.23,-9.77,1000.49,1.07,1.31,-2.04,
05/25/2025,21:12:49.38,-17.58,-11.23,1004.88,1.98,0.27,-0.27,
05/25/2025,21:12:49.40,-8.79,-12.70,1002.93,3.20,4.15,-2.10,
05/25/2025,21:12:49.42,-27.83,-19.53,1003.42,-0.55,1.07,-0.82,
05/25/2025,21:12:49.44,-25.39,-7.81,1007.32,0.79,1.19,0.52,
05/25/2025,21:12:49.46,-26.86,-10.74,990.72,1.22,0.85,-3.54,
05/25/2025,21:12:49.48,-31.25,-0.49,993.65,0.73,3.75,-3.38,
05/25/2025,21:12:49.50,-18.55,-7.32,990.72,3.45,1.22,-1.80,
05/25/2025,21:12:49.52,-7.81,-21.97,998.05,-1.28,1.65,-2.04,
05/25/2025,21:12:49.55,-29.79,-13.67,1004.39,0.85,3.32,0.73,
05/25/2025,21:12:49.57,-32.23,-9.77,999.02,-0.52,0.24,-2.04,
05/25/2025,21:12:49.59,-34.67,-17.09,996.58,1.13,-1.16,0.37,
05/25/2025,21:12:49.61,-23.93,-5.37,997.07,-1.22,-0.58,-1.13,
05/25/2025,21:12:49.63,-10.74,-6.84,1008.30,4.09,2.50,0.95,
05/25/2025,21:12:49.65,-17.09,-16.11,1002.44,0.70,-0.67,-0.98,
05/25/2025,21:12:49.67,-21.97,-5.86,997.56,-0.85,-0.61,-1.31,
05/25/2025,21:12:49.69,-13.18,-11.72,996.09,-0.70,-2.47,-0.18,
05/25/2025,21:12:49.71,-18.07,-16.11,1011.72,0.52,-0.15,1.71,
05/25/2025,21:12:49.73,-11.72,-26.86,1013.18,-1.95,-0.03,-1.62,
05/25/2025,21:12:49.75,-11.72,-9.28,997.07,-1.77,-3.78,1.19,
05/25/2025,21:12:49.77,-17.58,-33.20,988.77,-1.95,4.36,-2.01,
05/25/2025,21:12:49.79,-11.23,-19.04,999.51,0.06,6.07,-2.65,
05/25/2025,21:12:49.81,-13.67,-25.88,990.23,2.38,2.62,1.89,
05/25/2025,21:12:49.83,-10.74,-22.46,1000.98,1.62,-0.03,-0.12,
05/25/2025,21:12:49.85,-15.62,-17.58,991.70,0.37,0.21,-0.52,
05/25/2025,21:12:49.90,-15.14,-29.30,999.51,0.67,1.80,-0.61,
05/25/2025,21:12:49.92,-17.58,-23.44,993.16,4.18,2.16,-4.12,
05/25/2025,21:12:49.94,-6.84,-5.37,996.58,2.20,1.40,-2.71,
05/25/2025,21:12:49.96,-20.02,-17.09,996.58,2.10,2.23,-2.38,
05/25/2025,21:12:49.98,-17.58,-16.60,992.68,2.53,0.67,0.64,
05/25/2025,21:12:50.00,-8.30,-17.09,989.26,1.28,1.34,-1.19,
05/25/2025,21:12:50.02,-7.81,-24.41,1002.93,3.26,2.35,1.95,
05/25/2025,21:12:50.04,-7.32,-21.97,999.51,2.32,3.08,-4.73,
05/25/2025,21:12:50.07,-12.21,-28.81,1009.28,2.26,3.48,-2.53,
05/25/2025,21:12:50.09,-21.48,-24.90,992.19,0.88,0.91,0.09,
05/25/2025,21:12:50.11,-10.25,-30.27,990.23,4.33,1.55,-0.88,
05/25/2025,21:12:50.13,2.44,-19.53,990.72,2.41,1.40,0.40,
05/25/2025,21:12:50.15,-18.07,-26.37,998.54,0.21,3.23,-3.20,
05/25/2025,21:12:50.17,-24.41,-21.00,994.63,1.10,2.16,-3.14,
05/25/2025,21:12:50.19,-16.60,-18.55,996.09,2.93,1.22,-2.44,
05/25/2025,21:12:50.21,-11.23,-21.00,999.02,2.77,1.74,-2.04,
05/25/2025,21:12:50.23,-16.60,-21.48,1006.35,2.23,1.86,0.91,
05/25/2025,21:12:50.25,-16.60,-19.04,999.51,-0.06,2.20,-2.74,
05/25/2025,21:12:50.27,-27.34,-25.88,996.58,-1.22,-1.46,-3.81,
05/25/2025,21:12:50.29,-11.72,-15.62,998.05,-1.62,2.44,1.37,
05/25/2025,21:12:50.31,-9.28,-26.37,985.84,-0.09,1.07,-2.23,
05/25/2025,21:12:50.33,-7.32,-16.60,999.02,-0.34,1.83,0.12,
05/25/2025,21:12:50.35,-11.72,-11.23,992.68,1.71,1.49,-2.32,
05/25/2025,21:12:50.37,-6.84,-16.11,996.58,-0.09,1.52,0.46,
05/25/2025,21:12:50.43,-18.07,-19.53,1000.98,1.68,1.68,-0.88,
05/25/2025,21:12:50.46,-24.90,-29.30,991.21,1.98,4.15,-2.41,
05/25/2025,21:12:50.48,-5.37,-24.90,985.84,2.68,2.80,-2.26,
05/25/2025,21:12:50.50,0.00,-31.25,998.05,0.95,0.52,-0.52,
05/25/2025,21:12:50.52,-10.25,-14.16,1004.39,1.37,3.32,-0.34,
05/25/2025,21:12:50.54,-10.74,-19.53,998.54,1.80,2.10,1.65,
05/25/2025,21:12:50.56,-15.62,-28.32,999.51,1.62,1.80,-0.88,
05/25/2025,21:12:50.58,-11.23,-18.07,1006.35,2.99,0.24,-0.85,
05/25/2025,21:12:50.60,-6.84,-12.70,990.23,0.85,3.11,-0.12,
05/25/2025,21:12:50.62,-15.14,-18.55,1000.98,1.95,2.20,-2.10,
05/25/2025,21:12:50.64,-17.09,-21.00,989.26,2.20,1.83,-2.56,
05/25/2025,21:12:50.66,1.46,-33.69,999.02,1.07,2.10,-2.10,
05/25/2025,21:12:50.68,-6.35,-23.44,1000.00,0.46,1.65,-0.95,
05/25/2025,21:12:50.70,-6.84,-21.97,995.12,1.19,1.16,3.23,
05/25/2025,21:12:50.72,-18.07,-12.21,999.02,2.56,3.69,3.08,
05/25/2025,21:12:50.74,-21.00,-14.65,1000.49,-0.46,2.47,0.67,
05/25/2025,21:12:50.76,-12.70,-10.25,1002.44,1.31,0.98,-1.40,
05/25/2025,21:12:50.78,-19.04,-24.90,999.51,0.98,-0.43,-1.80,
05/25/2025,21:12:50.80,-18.07,-26.37,999.51,2.32,1.89,-1.86,
05/25/2025,21:12:50.82,0.49,-17.09,989.26,1.40,-0.24,1.59,
05/25/2025,21:12:50.84,-13.67,-15.14,1003.42,1.22,0.49,-1.52,
05/25/2025,21:12:50.86,-4.39,-18.55,999.02,1.80,0.52,0.49,
05/25/2025,21:12:50.88,-9.28,-19.53,996.58,1.07,4.02,-3.11,
05/25/2025,21:12:50.93,-8.79,-29.30,1001.46,0.64,1.92,-1.55,
05/25/2025,21:12:50.95,-4.39,-23.93,983.89,0.00,-0.15,-1.40,
05/25/2025,21:12:50.97,-11.23,-29.30,996.58,2.04,2.32,2.80,
05/25/2025,21:12:50.99,-2.93,-13.18,995.12,3.23,0.49,-2.23,
05/25/2025,21:12:51.01,-15.62,-13.18,1003.42,1.01,3.96,1.95,
05/25/2025,21:12:51.03,-21.48,-13.18,1003.42,1.10,2.84,1.37,
05/25/2025,21:12:51.05,-22.46,-26.86,988.28,0.85,0.12,0.55,
05/25/2025,21:12:51.07,-26.37,-18.07,997.07,1.92,0.61,-2.23,
05/25/2025,21:12:51.09,-14.65,-24.41,988.77,1.40,1.62,-0.73,
05/25/2025,21:12:51.11,-15.14,-35.64,1002.44,1.40,3.63,2.20,
05/25/2025,21:12:51.13,-16.11,-16.60,1009.28,1.83,3.60,-0.98,
05/25/2025,21:12:51.15,-3.42,-17.58,1003.42,1.40,2.59,-1.92,
05/25/2025,21:12:51.17,-13.67,-16.11,1000.00,-0.49,2.35,-2.77,
05/25/2025,21:12:51.19,-16.60,-16.11,992.68,3.60,2.74,0.21,
05/25/2025,21:12:51.21,-13.18,-21.48,991.70,0.58,2.01,-1.04,
05/25/2025,21:12:51.23,-5.86,-35.64,992.19,1.95,2.32,-0.24,
05/25/2025,21:12:51.25,-19.53,-21.48,981.45,1.74,3.26,-0.79,
05/25/2025,21:12:51.27,-5.37,-29.30,994.63,1.92,2.35,-2.16,
05/25/2025,21:12:51.29,-20.02,-23.44,1006.84,0.00,1.40,-1.04,
05/25/2025,21:12:51.31,-17.09,-25.39,988.77,1.19,2.71,-3.75,
05/25/2025,21:12:51.33,-11.23,-28.81,991.70,1.62,-0.76,-0.49,
05/25/2025,21:12:51.35,-10.74,-20.02,998.05,1.10,3.08,0.49,
05/25/2025,21:12:51.37,-0.98,-22.46,996.58,2.01,2.07,-3.90,
05/25/2025,21:12:51.39,-12.70,-19.53,997.07,2.68,3.26,-1.59,
05/25/2025,21:12:51.44,-11.72,-13.18,996.09,2.29,2.38,-1.19,
05/25/2025,21:12:51.46,-2.44,-21.48,1001.95,2.07,1.37,-2.65,
05/25/2025,21:12:51.48,-18.55,-23.93,1008.79,2.32,4.02,-2.80,
05/25/2025,21:12:51.50,-6.84,-23.93,1001.46,-0.21,2.62,-3.08,
05/25/2025,21:12:51.52,-16.11,-24.41,1001.46,1.62,2.32,3.08,
05/25/2025,21:12:51.54,-9.28,-17.09,1009.28,0.88,2.80,-3.08,
05/25/2025,21:12:51.56,-1.46,-15.62,998.05,-0.12,2.13,0.34,
05/25/2025,21:12:51.58,-9.28,-21.48,1003.42,1.80,0.30,-0.03,
05/25/2025,21:12:51.60,-6.35,-17.58,998.54,0.30,2.47,-0.06,
05/25/2025,21:12:51.62,-2.44,-27.34,990.23,0.03,2.93,1.01,
05/25/2025,21:12:51.64,-17.09,-27.34,1000.98,2.59,3.29,-0.09,
05/25/2025,21:12:51.66,-14.16,-19.04,999.02,2.35,3.54,-0.82,
05/25/2025,21:12:51.68,-18.55,-23.93,1003.42,1.86,1.19,-3.17,
05/25/2025,21:12:51.70,-20.51,-24.90,991.70,2.01,2.99,-0.79,
05/25/2025,21:12:51.72,-15.62,-20.02,990.72,1.92,2.29,-0.88,
05/25/2025,21:12:51.74,-10.25,-16.11,994.63,0.79,1.92,0.91,
05/25/2025,21:12:51.76,-10.25,-25.88,996.09,1.83,1.62,-0.49,
05/25/2025,21:12:51.78,-11.72,-15.14,994.63,2.71,2.35,0.27,
05/25/2025,21:12:51.80,-1.46,-20.02,993.16,2.84,1.83,-3.54,
05/25/2025,21:12:51.82,-22.46,-27.34,1000.49,4.76,2.04,-0.58,
05/25/2025,21:12:51.84,-8.30,-24.41,1000.49,1.43,0.85,0.34,
05/25/2025,21:12:51.86,-16.60,-23.93,1003.91,2.01,1.68,3.29,
05/25/2025,21:12:51.88,-11.23,-31.74,986.82,0.82,0.91,0.30,
05/25/2025,21:12:51.90,-12.21,-23.93,996.58,1.74,1.25,1.55,
05/25/2025,21:12:51.95,-11.23,-29.79,997.56,-0.24,0.27,-1.68,
05/25/2025,21:12:51.97,-17.58,-24.41,998.05,1.52,1.22,-0.73,
05/25/2025,21:12:51.99,-23.44,-27.83,996.58,0.82,3.72,2.44,
05/25/2025,21:12:52.01,-2.44,-26.86,1000.00,2.90,0.24,0.46,
05/25/2025,21:12:52.03,-2.44,-21.48,992.68,0.64,3.57,0.91,
05/25/2025,21:12:52.05,-9.77,-20.51,995.12,0.55,3.17,0.30,
05/25/2025,21:12:52.07,-10.25,-22.46,1005.37,0.91,2.01,-1.80,
05/25/2025,21:12:52.09,-10.74,-26.37,1000.49,1.46,1.92,-1.83,
05/25/2025,21:12:52.11,-9.28,-23.44,1007.81,-0.27,2.16,-1.37,
05/25/2025,21:12:52.13,-19.53,-13.18,989.75,0.95,1.83,-0.37,
05/25/2025,21:12:52.15,-7.81,-18.55,992.19,0.95,1.25,0.64,
05/25/2025,21:12:52.17,-12.70,-23.93,996.58,1.25,1.62,1.55,
05/25/2025,21:12:52.19,-2.44,-20.02,1007.32,1.19,1.37,-0.58,
05/25/2025,21:12:52.21,-14.65,-20.51,995.61,1.10,1.68,2.44,
05/25/2025,21:12:52.23,-9.28,-18.07,997.56,2.74,1.28,-1.65,
05/25/2025,21:12:52.25,-20.02,-28.32,998.54,0.67,2.35,-1.10,
05/25/2025,21:12:52.27,-8.79,-24.90,998.05,1.46,2.10,0.24,
05/25/2025,21:12:52.29,-8.79,-22.46,987.30,0.30,-1.04,-0.88,
05/25/2025,21:12:52.31,-10.25,-8.30,998.05,0.43,1.19,2.07,
05/25/2025,21:12:52.33,-10.74,-25.88,994.14,0.15,0.06,-0.27,
05/25/2025,21:12:52.35,-7.32,-25.88,1004.39,2.04,3.41,1.01,
05/25/2025,21:12:52.37,-21.48,-19.53,994.14,2.59,2.77,-1.71,
05/25/2025,21:12:52.39,-13.67,-20.02,1002.93,1.07,1.68,-2.99,
05/25/2025,21:12:52.41,-2.44,-12.21,1000.98,1.01,1.80,0.06,
05/25/2025,21:12:52.46,-20.02,-14.65,998.05,2.41,0.64,-1.40,
05/25/2025,21:12:52.48,-17.58,-15.62,1000.00,4.02,2.29,-0.61,
05/25/2025,21:12:52.50,-6.84,-14.16,986.82,2.50,1.49,0.85,
05/25/2025,21:12:52.52,-5.86,-24.90,994.14,0.79,1.10,-0.64,
05/25/2025,21:12:52.54,-7.81,-15.14,994.14,1.07,3.75,-1.34,
05/25/2025,21:12:52.56,-21.97,-18.55,991.70,2.07,0.40,1.34,
05/25/2025,21:12:52.58,-13.18,-34.18,1006.84,1.80,0.27,-1.89,
05/25/2025,21:12:52.60,4.39,-30.76,1001.95,0.79,2.53,0.85,
05/25/2025,21:12:52.62,-18.55,-22.95,1003.42,0.61,1.95,-2.47,
05/25/2025,21:12:52.64,-15.14,-18.55,997.56,1.40,1.19,0.27,
05/25/2025,21:12:52.66,-9.77,-33.69,1000.49,2.47,0.58,0.98,
05/25/2025,21:12:52.68,-13.67,-28.32,986.82,2.13,0.82,-3.54,
05/25/2025,21:12:52.70,-17.58,-22.95,1000.49,1.68,1.34,-2.38,
05/25/2025,21:12:52.72,-19.53,-11.72,992.19,3.78,1.98,-4.48,
05/25/2025,21:12:52.74,-13.18,-26.86,1002.44,2.01,1.43,-0.09,
05/25/2025,21:12:52.76,-7.81,-23.93,997.56,2.74,1.07,-0.37,
05/25/2025,21:12:52.78,-11.72,-15.62,993.16,3.26,1.25,-1.95,
05/25/2025,21:12:52.80,-13.67,-14.65,996.58,1.01,2.96,-1.22,
05/25/2025,21:12:52.82,-15.62,-33.69,1006.84,1.37,0.43,-0.37,
05/25/2025,21:12:52.84,-35.16,-20.51,994.63,4.12,1.22,2.71,
05/25/2025,21:12:52.86,-3.91,-33.20,986.33,1.98,-0.76,-0.03,
05/25/2025,21:12:52.88,-16.11,-24.41,1011.72,1.62,4.02,1.92,
05/25/2025,21:12:52.90,-11.72,-27.34,995.12,0.55,-1.19,0.49,
05/25/2025,21:12:52.92,-16.60,-17.58,985.84,0.61,1.83,-0.49,
05/25/2025,21:12:52.97,-11.72,-17.58,1000.49,2.87,2.23,-2.53,
05/25/2025,21:12:52.99,-21.00,-32.71,988.77,0.49,1.74,-2.29,
05/25/2025,21:12:53.01,-15.62,-10.25,1000.98,1.89,1.01,-2.20,
05/25/2025,21:12:53.03,-7.81,-27.34,1001.46,2.10,1.52,2.26,
05/25/2025,21:12:53.05,-9.77,-23.93,995.61,2.84,1.07,1.04,
05/25/2025,21:12:53.07,-12.21,-21.97,982.42,0.52,1.59,1.71,
05/25/2025,21:12:53.09,-11.72,-29.79,1002.44,-0.34,1.80,-0.70,
05/25/2025,21:12:53.11,-7.81,-20.02,1004.39,3.84,1.40,-3.35,
05/25/2025,21:12:53.13,-19.04,-25.88,995.12,1.65,2.68,0.03,
05/25/2025,21:12:53.15,-3.42,-16.11,996.09,3.14,1.31,-2.77,
05/25/2025,21:12:53.17,-11.23,-21.00,988.77,3.93,2.90,2.29,
05/25/2025,21:12:53.19,-14.16,-31.25,991.21,1.16,1.59,-3.78,
05/25/2025,21:12:53.21,-2.44,-3.42,989.75,1.01,0.09,-3.20,
05/25/2025,21:12:53.23,-16.60,-23.93,1001.95,0.91,1.46,-1.49,
05/25/2025,21:12:53.25,-5.86,-21.97,1009.28,1.80,2.65,2.38,
05/25/2025,21:12:53.27,-13.67,-24.41,998.54,1.28,3.38,0.67,
05/25/2025,21:12:53.29,-17.58,-16.60,998.05,1.92,3.05,-0.30,
05/25/2025,21:12:53.31,-18.55,-24.41,997.07,2.65,1.16,-0.67,
05/25/2025,21:12:53.33,-11.72,-25.88,994.14,0.91,2.84,1.07,
05/25/2025,21:12:53.35,-11.23,-12.21,994.63,2.10,0.46,-2.93,
05/25/2025,21:12:53.37,-16.11,-35.64,994.14,1.25,3.84,-2.20,
05/25/2025,21:12:53.39,0.49,-17.09,1003.91,2.13,3.38,1.89,
05/25/2025,21:12:53.41,-15.14,-27.83,1013.67,2.84,1.89,0.82,
05/25/2025,21:12:53.43,-14.65,-18.07,997.56,1.19,3.69,0.73,
05/25/2025,21:12:53.48,-19.04,-24.41,1000.98,-0.30,2.77,-3.26,
05/25/2025,21:12:53.50,-17.58,-24.41,987.30,1.16,2.07,-1.28,
05/25/2025,21:12:53.52,-10.74,-19.53,993.16,1.31,0.43,-1.62,
05/25/2025,21:12:53.54,-9.28,-25.88,993.16,1.07,2.32,-0.91,
05/25/2025,21:12:53.56,-12.70,-21.00,994.14,-1.13,2.16,-1.07,
05/25/2025,21:12:53.58,-8.79,-19.04,1004.39,2.20,0.76,0.46,
05/25/2025,21:12:53.60,-15.14,-22.95,997.56,2.26,2.84,-0.12,
05/25/2025,21:12:53.62,1.95,-24.90,993.65,-0.30,1.34,-2.16,
05/25/2025,21:12:53.64,-2.44,-7.32,990.23,1.43,0.43,-1.46,
05/25/2025,21:12:53.66,-14.16,-23.93,1003.91,-0.24,0.55,0.12,
05/25/2025,21:12:53.68,-4.88,-26.37,1000.49,1.83,1.49,0.67,
05/25/2025,21:12:53.70,-14.65,-20.02,999.51,1.98,2.41,-2.13,
05/25/2025,21:12:53.72,-8.79,-22.46,1006.84,0.79,1.55,-1.34,
05/25/2025,21:12:53.74,-11.72,-10.74,1002.93,1.55,2.71,0.03,
05/25/2025,21:12:53.76,-9.28,-19.53,1002.44,0.85,2.50,-0.64,
05/25/2025,21:12:53.78,-14.16,-28.81,994.63,0.98,3.11,-1.16,
05/25/2025,21:12:53.80,-14.65,-19.04,999.51,0.46,2.96,0.76,
05/25/2025,21:12:53.82,0.00,-15.62,993.65,1.04,3.45,-1.19,
05/25/2025,21:12:53.84,-16.60,-25.88,988.28,-0.24,2.01,-2.80,
05/25/2025,21:12:53.86,-12.70,-37.11,999.02,3.72,4.27,0.76,
05/25/2025,21:12:53.88,-24.90,-28.81,983.40,1.68,1.07,-2.87,
05/25/2025,21:12:53.90,-3.91,-21.48,998.05,-1.31,2.16,2.90,
05/25/2025,21:12:53.92,-12.70,-28.32,1002.93,-0.15,2.74,-2.16,
05/25/2025,21:12:53.94,-10.25,-30.76,999.02,0.91,1.74,0.24,
05/25/2025,21:12:53.99,-11.72,-30.76,992.68,0.70,1.80,0.52,
05/25/2025,21:12:54.01,-20.02,-12.70,1001.46,1.22,-0.91,1.59,
05/25/2025,21:12:54.03,-10.25,-25.88,993.16,1.89,0.67,-3.26,
05/25/2025,21:12:54.05,-6.35,-11.23,1003.91,0.70,0.46,-2.41,
05/25/2025,21:12:54.07,-8.79,-32.23,993.16,-0.12,3.08,1.71,
05/25/2025,21:12:54.09,-9.28,-17.09,1004.39,0.18,1.68,-2.29,
05/25/2025,21:12:54.11,-15.14,-17.58,990.72,0.79,4.18,1.68,
05/25/2025,21:12:54.13,-12.70,-27.34,993.16,-0.34,2.74,2.13,
05/25/2025,21:12:54.15,-15.14,-25.39,1013.18,-1.19,0.52,-0.64,
05/25/2025,21:12:54.17,-11.23,-17.58,993.16,1.07,1.89,-0.79,
05/25/2025,21:12:54.19,-12.70,-17.09,1001.46,1.86,3.57,-1.55,
05/25/2025,21:12:54.21,-1.46,-28.32,1000.49,0.55,2.77,-1.89,
05/25/2025,21:12:54.23,-5.37,-20.02,1000.00,1.98,1.40,-0.37,
05/25/2025,21:12:54.25,-26.86,-25.88,995.61,0.70,-0.82,-2.13,
05/25/2025,21:12:54.27,-16.11,-26.37,983.40,0.95,3.29,0.49,
05/25/2025,21:12:54.29,-19.04,-17.58,993.65,0.58,-0.03,-0.09,
05/25/2025,21:12:54.31,-17.09,-18.07,1001.46,0.03,2.04,-3.75,
05/25/2025,21:12:54.33,-10.74,-10.74,1000.49,0.43,1.62,1.55,
05/25/2025,21:12:54.35,-8.30,-14.16,996.58,3.93,0.15,0.15,
05/25/2025,21:12:54.37,-16.60,-42.48,991.70,0.95,1.65,0.52,
05/25/2025,21:12:54.39,-9.77,-31.74,996.09,2.44,2.38,1.98,
05/25/2025,21:12:54.41,-5.37,-25.39,1002.44,0.52,-1.25,1.43,
05/25/2025,21:12:54.43,-21.48,-20.51,995.61,2.53,-0.30,-1.59,
05/25/2025,21:12:54.45,-10.74,-21.00,988.77,1.62,3.90,0.67,
05/25/2025,21:12:54.51,-15.14,-21.97,1002.93,1.95,0.88,2.10,
05/25/2025,21:12:54.53,-3.42,-28.32,990.23,1.83,2.20,0.03,
05/25/2025,21:12:54.55,-11.23,-22.46,1004.88,1.86,2.16,-4.33,
05/25/2025,21:12:54.57,0.98,-22.46,1001.95,0.55,0.64,1.62,
05/25/2025,21:12:54.59,-1.46,-27.34,996.09,-0.24,3.51,-5.46,
05/25/2025,21:12:54.61,-5.86,-28.32,990.23,0.27,-0.03,0.30,
05/25/2025,21:12:54.63,-12.70,-24.90,993.65,1.77,1.86,1.52,
05/25/2025,21:12:54.65,-4.39,-14.16,1003.91,2.04,0.64,-1.89,
05/25/2025,21:12:54.67,-13.18,-17.58,990.23,1.37,2.10,1.95,
05/25/2025,21:12:54.69,-11.72,-12.70,991.70,0.67,2.35,-1.65,
05/25/2025,21:12:54.71,-8.79,-23.44,1000.49,1.65,1.19,0.88,
05/25/2025,21:12:54.73,-17.58,-21.97,1002.44,1.86,1.43,-2.01,
05/25/2025,21:12:54.75,-17.58,-22.95,993.65,1.68,3.63,-2.44,
05/25/2025,21:12:54.77,-8.30,-30.27,999.02,1.10,0.49,0.46,
05/25/2025,21:12:54.79,-20.51,-32.71,996.09,1.40,0.73,1.10,
05/25/2025,21:12:54.81,-10.25,-23.93,996.58,1.68,0.82,1.31,
05/25/2025,21:12:54.83,-25.88,-22.46,1009.77,0.67,1.07,-1.31,
05/25/2025,21:12:54.85,-13.67,-21.97,1020.51,1.46,-1.01,-2.10,
05/25/2025,21:12:54.87,-10.74,-25.88,993.65,2.74,0.52,1.22,
05/25/2025,21:12:54.89,-3.42,-14.65,991.70,0.88,1.55,0.85,
05/25/2025,21:12:54.91,-8.79,-22.95,1002.93,2.41,0.95,-1.37,
05/25/2025,21:12:54.93,-18.55,-4.88,995.61,2.26,-0.06,2.07,
05/25/2025,21:12:54.95,-12.21,-13.18,999.02,1.89,2.44,-0.03,
05/25/2025,21:12:54.97,1.46,-14.65,1013.67,-0.58,0.73,-1.04,
05/25/2025,21:12:55.02,-12.21,-30.27,997.07,2.87,3.08,1.59,
05/25/2025,21:12:55.04,-6.35,-18.07,986.82,1.71,1.89,-2.16,
05/25/2025,21:12:55.06,-4.39,-26.37,989.26,0.73,3.14,-0.34,
05/25/2025,21:12:55.08,-22.46,-14.16,989.26,1.74,4.42,1.01,
05/25/2025,21:12:55.10,-8.79,-22.46,996.58,2.47,2.23,-0.27,
05/25/2025,21:12:55.12,-17.58,-25.39,998.05,0.15,2.29,-0.76,
05/25/2025,21:12:55.14,-21.48,-21.00,1001.95,-0.55,0.55,-0.79,
05/25/2025,21:12:55.16,-19.04,-21.48,996.58,-0.58,1.34,-2.71,
05/25/2025,21:12:55.18,-15.14,-28.32,996.58,0.98,3.72,2.10,
05/25/2025,21:12:55.20,-13.67,-32.23,1000.00,-0.34,2.16,0.58,
05/25/2025,21:12:55.22,-5.37,-33.20,996.58,1.68,-1.10,-1.01,
05/25/2025,21:12:55.24,-19.53,-33.69,934.57,2.04,2.53,-2.29,
05/25/2025,21:12:55.26,-10.25,-36.13,987.30,2.99,1.95,-2.29,
05/25/2025,21:12:55.28,-14.16,-10.74,1001.46,1.22,3.14,-0.67,
05/25/2025,21:12:55.30,-6.35,-17.09,1000.00,-0.09,1.07,1.01,
05/25/2025,21:12:55.32,-25.39,-21.48,1009.77,1.59,1.25,-0.24,
05/25/2025,21:12:55.34,-0.98,-24.90,994.14,2.10,2.41,0.27,
05/25/2025,21:12:55.36,-9.28,-18.07,999.51,1.49,1.52,1.86,
05/25/2025,21:12:55.38,-6.84,-31.74,1002.44,0.12,3.84,0.95,
05/25/2025,21:12:55.40,-6.84,-35.64,1013.67,-0.09,3.54,-3.51,
05/25/2025,21:12:55.42,-9.77,-24.41,994.14,-0.24,2.77,-0.49,
05/25/2025,21:12:55.44,-9.28,-23.93,1006.35,1.83,3.75,-3.51,
05/25/2025,21:12:55.46,-11.72,-19.53,994.63,1.19,4.02,1.92,
05/25/2025,21:12:55.48,-23.93,-17.09,1000.00,0.52,3.32,-1.19,
05/25/2025,21:12:55.53,-20.02,-21.48,1004.88,-0.37,3.14,1.40,
05/25/2025,21:12:55.55,-9.28,-34.67,1003.42,0.82,1.86,-0.58,
05/25/2025,21:12:55.57,-20.02,-37.60,999.02,0.85,1.13,0.37,
05/25/2025,21:12:55.59,-9.77,-27.83,992.68,0.18,0.76,-1.13,
05/25/2025,21:12:55.61,-14.65,-31.74,1000.00,-3.45,0.70,1.10,
05/25/2025,21:12:55.63,-7.32,-12.21,1002.44,2.44,2.10,-1.01,
05/25/2025,21:12:55.65,-27.34,-28.32,990.72,1.40,0.64,0.00,
05/25/2025,21:12:55.67,-5.37,-30.27,993.16,3.38,1.04,-2.56,
05/25/2025,21:12:55.69,-11.72,-14.65,990.72,3.69,1.59,1.25,
05/25/2025,21:12:55.71,-20.02,-18.55,1002.44,1.95,1.65,-3.02,
05/25/2025,21:12:55.73,-15.62,-12.70,999.02,0.15,1.95,-0.37,
05/25/2025,21:12:55.75,-2.93,-18.55,988.28,-0.73,1.16,-3.93,
05/25/2025,21:12:55.77,-15.62,-19.04,988.28,0.70,1.83,1.16,
05/25/2025,21:12:55.79,-6.84,-32.71,1000.49,1.65,1.83,1.62,
05/25/2025,21:12:55.81,-12.21,-27.34,995.61,1.86,1.52,-3.90,
05/25/2025,21:12:55.83,-6.35,-20.02,994.14,2.10,1.89,-3.41,
05/25/2025,21:12:55.85,-5.37,-14.65,999.51,3.54,2.53,-1.65,
05/25/2025,21:12:55.87,-19.04,-22.46,989.75,0.12,2.99,-1.01,
05/25/2025,21:12:55.89,-11.23,-26.86,1002.44,0.70,0.67,-0.15,
05/25/2025,21:12:55.91,-17.58,-29.79,993.65,2.20,0.37,-1.10,
05/25/2025,21:12:55.93,-7.81,-30.76,993.65,0.12,3.20,-1.95,
05/25/2025,21:13:11.77,-123.54,-248.54,-968.26,-5.58,153.26,49.70,
05/25/2025,21:13:11.83,82.03,65.43,-976.56,-7.10,13.38,-32.38,
05/25/2025,21:13:11.85,-143.55,-55.66,-916.99,-5.79,18.84,-2.35,
05/25/2025,21:13:11.87,-104.00,-45.90,-969.24,106.86,109.97,115.95,
05/25/2025,21:13:11.89,-96.68,23.93,-1055.66,79.57,93.48,97.38,
05/25/2025,21:13:11.91,632.32,-161.62,-497.07,4.82,103.20,81.68,
05/25/2025,21:13:11.93,-140.14,201.17,-1193.85,37.16,206.07,45.85,
05/25/2025,21:13:11.95,-237.79,-381.84,-1020.02,-81.59,57.59,-18.90,
05/25/2025,21:13:11.97,258.79,165.53,-527.34,-7.99,-12.16,-66.98,
05/25/2025,21:13:11.99,23.44,-72.75,-979.98,10.76,-20.43,-13.48,
05/25/2025,21:13:12.01,115.23,-124.02,-1019.53,20.03,-26.77,55.34,
05/25/2025,21:13:12.03,-59.08,-124.51,-721.19,-41.43,58.48,67.80,
05/25/2025,21:13:12.05,-25.88,-158.69,-997.56,-43.29,9.24,22.32,
05/25/2025,21:13:12.07,-66.89,-601.07,-604.00,-130.46,20.00,25.15,
05/25/2025,21:13:12.09,-409.67,699.22,-829.10,-9.21,-17.23,11.01,
05/25/2025,21:13:12.11,163.57,-169.43,-1196.29,-68.93,2.62,13.32,
05/25/2025,21:13:12.13,119.63,333.50,-963.38,36.46,-8.26,4.33,
05/25/2025,21:13:12.15,-123.54,-109.86,-945.80,31.95,-7.93,-7.10,
05/25/2025,21:13:12.17,-12.70,-33.20,-1016.11,12.59,6.71,1.37,
05/25/2025,21:13:12.19,0.49,-31.74,-1026.37,-12.59,2.87,-5.95,
05/25/2025,21:13:12.21,15.14,-43.46,-1010.74,-0.95,-0.03,1.34,
05/25/2025,21:13:12.23,-13.18,-42.97,-1024.90,-18.90,-8.60,23.69,
05/25/2025,21:13:12.25,-9.77,-30.76,-1037.11,-9.57,-11.98,12.53,
05/25/2025,21:13:12.27,-12.70,-23.93,-1020.02,2.65,0.40,17.96,
05/25/2025,21:13:12.29,-8.79,-166.50,-1065.92,-3.54,3.05,20.58,
05/25/2025,21:13:12.34,372.56,-730.96,-1090.82,-12.84,35.52,-23.63,
05/25/2025,21:13:12.36,424.32,-1047.85,-1410.16,202.71,-26.71,-84.54,
05/25/2025,21:13:12.38,19.04,-222.17,-1048.83,-32.87,24.45,2.65,
05/25/2025,21:13:12.40,44.43,-234.86,-1032.71,5.15,21.25,-16.65,
05/25/2025,21:13:12.42,-92.29,82.03,-1020.02,27.90,13.60,1.13,
05/25/2025,21:13:12.44,-385.25,267.58,-735.35,25.27,10.37,1.28,
05/25/2025,21:13:12.46,618.65,91.80,-1486.33,19.30,4.18,0.27,
05/25/2025,21:13:12.48,0.00,-44.43,-1016.60,-1.92,3.14,2.50,
05/25/2025,21:13:12.50,-18.07,-56.15,-1018.07,-22.26,0.79,23.63,
05/25/2025,21:13:12.52,161.13,282.71,-403.32,-20.46,16.22,27.16,
05/25/2025,21:13:12.54,27.83,-23.44,-1009.28,-5.67,0.00,8.29,
05/25/2025,21:13:12.56,-11.23,-28.81,-1020.02,-8.05,-6.62,-2.29,
05/25/2025,21:13:12.58,-17.58,-22.95,-1023.93,0.52,-6.68,-3.69,
05/25/2025,21:13:12.60,-19.53,-29.79,-1025.88,-1.52,-1.74,-6.25,
05/25/2025,21:13:12.62,-20.51,-29.30,-945.31,-31.04,17.99,-4.97,
05/25/2025,21:13:12.64,-44.92,-31.25,-1054.69,-3.81,7.16,-4.24,
05/25/2025,21:13:12.66,9.77,-30.27,-1035.16,-1.10,9.45,0.52,
05/25/2025,21:13:12.68,0.98,-17.09,-1036.62,2.29,7.90,0.58,
05/25/2025,21:13:12.70,30.76,1.95,-1039.06,0.21,5.85,-23.29,
05/25/2025,21:13:12.72,-419.92,5.37,-1015.62,-0.76,-9.21,-38.38,
05/25/2025,21:13:12.74,-109.86,-16.60,-980.47,14.39,-2.13,-11.62,
05/25/2025,21:13:12.76,7.81,-28.81,-1033.69,6.74,3.84,3.20,
05/25/2025,21:13:12.78,17.58,-36.62,-1021.48,7.90,1.62,0.12,
05/25/2025,21:13:12.80,38.57,-18.55,-1030.76,5.49,-1.46,-11.43,
05/25/2025,21:13:12.85,13.18,-34.67,-1015.62,1.34,3.26,5.30,
05/25/2025,21:13:12.87,-0.49,-42.97,-1033.69,9.63,1.83,-5.43,
05/25/2025,21:13:12.89,60.55,-56.15,-959.96,13.51,2.01,-11.31,
05/25/2025,21:13:12.91,-29.79,-11.72,-1027.83,18.51,0.76,-7.77,
05/25/2025,21:13:12.93,-37.11,-27.83,-987.79,17.04,3.35,1.86,
05/25/2025,21:13:12.95,64.45,-106.93,-1047.85,13.96,2.96,3.96,
05/25/2025,21:13:12.97,3.91,-62.50,-1013.18,10.27,3.11,0.06,
05/25/2025,21:13:12.99,6.84,-49.32,-1030.76,2.80,-0.21,-1.98,
05/25/2025,21:13:13.01,19.04,-43.95,-1032.23,-5.82,-2.71,-0.37,
05/25/2025,21:13:13.03,-7.32,-62.01,-1012.70,-6.83,-4.02,1.77,
05/25/2025,21:13:13.05,-2.93,-45.41,-1022.95,-20.67,-21.46,-3.87,
05/25/2025,21:13:13.07,-59.08,-39.06,-1023.44,-7.84,-7.13,-3.57,
05/25/2025,21:13:13.09,-34.18,-31.74,-1026.86,-5.34,-5.67,-1.07,
05/25/2025,21:13:13.11,-26.86,-37.11,-1019.04,1.46,1.28,0.12,
05/25/2025,21:13:13.13,-26.37,-40.04,-1025.39,2.29,0.67,1.49,
05/25/2025,21:13:13.15,-12.70,-23.44,-1032.71,-0.06,4.15,0.00,
05/25/2025,21:13:13.17,-19.53,-32.71,-1021.00,2.32,2.10,-1.22,
05/25/2025,21:13:13.19,-14.65,-25.39,-1029.79,1.19,5.30,3.17,
05/25/2025,21:13:13.21,-20.51,-31.74,-1021.97,1.65,6.13,0.52,
05/25/2025,21:13:13.23,-8.30,-35.64,-1033.69,0.85,5.58,0.52,
05/25/2025,21:13:13.25,-10.74,-28.32,-1015.62,-0.98,1.80,0.49,
05/25/2025,21:13:13.27,-12.70,-38.09,-1017.58,-0.46,0.09,3.48,
05/25/2025,21:13:13.30,-14.65,-24.90,-1022.95,0.37,-0.43,3.32,
05/25/2025,21:13:13.32,-3.91,-39.55,-1035.64,2.47,1.22,2.32,
05/25/2025,21:13:13.36,-28.81,-23.44,-1020.02,1.52,2.80,3.26,
05/25/2025,21:13:13.38,-3.91,-35.16,-1017.09,0.67,1.77,6.65,
05/25/2025,21:13:13.40,7.81,-16.60,-1021.00,2.47,1.52,7.99,
05/25/2025,21:13:13.42,-37.11,-30.27,-1017.09,5.37,1.80,17.99,
05/25/2025,21:13:13.44,68.85,-6.35,-1061.52,10.27,6.37,12.84,
05/25/2025,21:13:13.46,102.54,5.86,-1012.21,19.57,13.60,4.24,
05/25/2025,21:13:13.48,1.95,-71.78,-1012.21,4.24,6.43,16.92,
05/25/2025,21:13:13.50,154.30,-41.99,-1082.52,29.21,-7.44,14.63,
05/25/2025,21:13:13.52,-0.49,-54.20,-1032.23,19.79,1.98,6.31,
05/25/2025,21:13:13.55,-19.53,-49.32,-1032.71,17.10,4.88,1.40,
05/25/2025,21:13:13.57,-17.09,-62.50,-1009.28,12.04,3.84,3.38,
05/25/2025,21:13:13.59,-11.72,-76.17,-1009.28,2.23,4.09,0.98,
05/25/2025,21:13:13.61,-9.77,-60.06,-1020.51,-24.54,-2.99,10.37,
05/25/2025,21:13:13.63,-20.51,-51.27,-1021.97,-27.56,9.60,4.73,
05/25/2025,21:13:13.65,-6.84,-47.85,-1008.79,-20.55,0.55,1.52,
05/25/2025,21:13:13.67,-5.86,-47.85,-1024.41,-12.90,2.23,-28.99,
05/25/2025,21:13:13.69,-1.46,-73.73,-977.54,0.15,0.03,-26.04,
05/25/2025,21:13:13.71,-13.67,-7.32,-1019.53,-0.24,0.21,-10.98,
05/25/2025,21:13:13.73,-10.74,-34.67,-1020.02,-6.83,9.82,-4.88,
05/25/2025,21:13:13.75,-0.49,-42.97,-1029.30,-13.48,12.35,-11.07,
05/25/2025,21:13:13.77,-6.35,-7.81,-1034.67,-0.52,4.82,-15.24,
05/25/2025,21:13:13.79,-7.32,-4.39,-1038.57,1.10,7.16,-21.52,
05/25/2025,21:13:13.81,-12.70,-43.95,-1024.41,-1.37,9.27,-13.51,
05/25/2025,21:13:13.83,-1.46,-7.32,-1022.46,-0.49,5.30,-4.91,
05/25/2025,21:13:13.88,13.67,-27.83,-1014.16,1.01,7.71,-0.21,
05/25/2025,21:13:13.90,2.93,-17.58,-1018.07,1.49,1.34,-4.27,
05/25/2025,21:13:13.92,11.23,-44.43,-1025.88,3.26,-2.65,0.09,
05/25/2025,21:13:13.94,-20.02,62.50,-1032.71,2.47,0.49,-2.01,
05/25/2025,21:13:13.96,-4.88,-25.39,-1018.07,4.33,1.83,-8.84,
05/25/2025,21:13:13.98,6.84,-29.30,-1032.71,2.16,-3.51,-9.33,
05/25/2025,21:13:14.00,6.84,-46.39,-1032.23,6.95,-4.85,-6.92,
05/25/2025,21:13:14.02,-0.98,-38.09,-1023.44,5.67,-5.49,-4.66,
05/25/2025,21:13:14.04,-4.88,-35.64,-1027.34,10.27,0.03,-4.88,
05/25/2025,21:13:14.06,-16.11,-159.67,-1035.16,14.21,3.51,-14.15,
05/25/2025,21:13:14.08,-18.55,-5.86,-1015.62,12.32,5.03,-6.68,
05/25/2025,21:13:14.10,-1.46,20.02,-1033.20,3.72,-1.98,-4.97,
05/25/2025,21:13:14.12,21.00,-60.55,-1064.94,4.30,0.98,-7.68,
05/25/2025,21:13:14.14,31.74,122.07,-1019.53,-0.76,4.15,-5.55,
05/25/2025,21:13:14.16,-45.41,-248.54,-1030.27,1.92,4.42,-7.77,
05/25/2025,21:13:14.18,-114.26,-32.71,-1005.37,3.90,-1.80,5.46,
05/25/2025,21:13:14.20,147.95,83.01,-1057.13,11.59,8.60,-1.01,
05/25/2025,21:13:14.22,-10.74,-43.95,-1021.97,7.50,5.37,-6.68,
05/25/2025,21:13:14.24,0.49,-40.53,-1020.51,5.91,0.12,-10.52,
05/25/2025,21:13:14.26,-5.86,-50.78,-1027.34,7.29,3.26,-11.83,
05/25/2025,21:13:14.28,-4.39,-44.92,-1015.14,20.49,-2.23,-16.59,
05/25/2025,21:13:14.30,-1.95,-63.96,-1030.27,20.15,1.07,-14.60,
05/25/2025,21:13:14.32,-5.86,-73.24,-1029.30,23.54,0.88,-15.61,
05/25/2025,21:13:14.34,-7.32,-80.57,-1021.97,28.05,4.88,-18.57,
05/25/2025,21:13:14.39,9.77,-95.21,-1004.88,20.91,2.16,-9.05,
05/25/2025,21:13:14.41,7.32,-90.33,-1013.67,0.40,1.68,-1.10,
05/25/2025,21:13:14.43,-4.88,-111.82,-1015.62,2.65,0.49,-4.54,
05/25/2025,21:13:14.45,9.28,-95.70,-1008.79,0.82,4.02,-2.01,
05/25/2025,21:13:14.47,-4.39,-114.75,-1018.55,3.93,-0.03,-2.38,
05/25/2025,21:13:14.49,-5.37,-103.52,-1028.81,3.90,-4.05,-4.51,
05/25/2025,21:13:14.51,-5.37,-111.33,-1013.67,-0.70,5.46,-1.83,
05/25/2025,21:13:14.53,-8.30,-92.77,-1014.16,-1.49,6.28,1.25,
05/25/2025,21:13:14.55,-2.44,-107.91,-1024.41,0.82,6.62,2.41,
05/25/2025,21:13:14.57,-1.46,-100.59,-1021.97,4.97,-2.71,4.57,
05/25/2025,21:13:14.59,-13.67,-97.17,-1022.95,3.90,0.27,-1.19,
05/25/2025,21:13:14.61,-7.81,-107.42,-1021.48,-0.52,6.80,-2.47,
05/25/2025,21:13:14.63,-6.84,-104.98,-1029.79,-2.62,6.62,2.68,
05/25/2025,21:13:14.65,-4.88,-95.21,-1019.53,0.58,3.02,4.97,
05/25/2025,21:13:14.67,5.37,-109.38,-1015.62,-0.46,3.87,-0.03,
05/25/2025,21:13:14.69,-8.30,-114.75,-1014.16,-0.03,4.15,-8.75,
05/25/2025,21:13:14.71,10.74,-106.45,-1032.71,-1.68,6.07,0.15,
05/25/2025,21:13:14.73,-7.81,-104.49,-1020.51,1.07,0.76,-5.61,
05/25/2025,21:13:14.75,-4.39,-114.75,-1028.32,2.68,0.03,-4.30,
05/25/2025,21:13:14.77,-1.95,-93.26,-1012.70,2.84,-0.03,-2.41,
05/25/2025,21:13:14.79,10.25,-107.42,-1012.70,1.86,4.76,0.79,
05/25/2025,21:13:14.81,-1.46,-88.87,-1023.44,-2.68,6.28,-2.56,
05/25/2025,21:13:14.83,6.35,-105.47,-1014.65,0.43,2.29,0.06,
05/25/2025,21:13:14.85,5.37,-112.30,-1004.39,4.97,-0.70,5.09,
05/25/2025,21:13:14.90,4.88,-109.86,-1021.48,-4.54,4.82,-3.11,
05/25/2025,21:13:14.92,5.37,-89.36,-1017.58,-2.71,1.86,1.13,
05/25/2025,21:13:14.94,8.30,-94.73,-1022.95,-5.79,3.08,2.77,
05/25/2025,21:13:14.96,-5.37,-97.66,-1021.97,-13.96,3.99,4.88,
05/25/2025,21:13:14.98,1.95,-70.31,-1016.11,-24.12,0.55,3.45,
05/25/2025,21:13:15.00,-2.93,-74.22,-1007.32,-22.59,2.29,-0.46,
05/25/2025,21:13:15.02,6.84,-68.36,-1022.46,-25.27,1.46,2.87,
05/25/2025,21:13:15.04,16.60,-48.83,-1019.04,-24.39,-1.34,-2.44,
05/25/2025,21:13:15.06,-1.95,-51.76,-1027.34,-7.71,3.23,1.80,
05/25/2025,21:13:15.08,14.65,-53.22,-1026.37,-2.38,2.84,-4.18,
05/25/2025,21:13:15.10,9.28,-54.20,-1025.39,-2.32,3.45,0.91,
05/25/2025,21:13:15.12,13.67,-38.57,-1023.44,-2.56,6.04,1.71,
05/25/2025,21:13:15.14,23.93,-43.46,-1034.18,0.70,5.27,2.38,
05/25/2025,21:13:15.16,18.55,-43.46,-994.14,-1.43,3.02,-1.01,
05/25/2025,21:13:15.18,0.98,-43.46,-990.23,-2.13,3.54,-3.08,
05/25/2025,21:13:15.20,19.04,-39.55,-1015.62,1.22,2.29,-1.16,
05/25/2025,21:13:15.22,4.88,-45.90,-1029.79,3.93,1.07,-1.40,
05/25/2025,21:13:15.24,1.95,-39.55,-1016.11,4.33,1.04,-0.70,
05/25/2025,21:13:15.26,-3.42,-43.46,-1039.55,1.83,1.28,-0.49,
05/25/2025,21:13:15.28,17.58,0.98,-1004.88,-0.43,1.95,0.70,
05/25/2025,21:13:15.30,10.25,-35.64,-1032.71,0.91,2.50,4.66,
05/25/2025,21:13:15.32,0.00,-6.84,-1021.97,2.35,3.32,10.30,
05/25/2025,21:13:15.34,0.49,-35.16,-1023.93,0.82,2.96,8.69,
05/25/2025,21:13:15.36,-5.86,-38.09,-1031.25,0.64,1.71,6.10,
05/25/2025,21:13:15.41,21.00,-104.49,-1040.53,3.57,2.07,4.88,
05/25/2025,21:13:15.43,-10.74,-3.91,-1046.88,3.14,-1.43,2.16,
05/25/2025,21:13:15.45,0.00,-20.02,-1004.39,1.07,1.95,0.67,
05/25/2025,21:13:15.47,42.97,-78.61,-1058.59,0.49,3.45,5.67,
05/25/2025,21:13:15.49,6.84,-93.75,-1018.55,3.23,2.99,5.27,
05/25/2025,21:13:15.51,-46.39,11.23,-996.09,0.27,-3.29,5.03,
05/25/2025,21:13:15.53,-36.62,-27.34,-1005.37,0.91,1.10,6.95,
05/25/2025,21:13:15.55,-24.41,41.02,-1027.83,1.31,1.77,1.68,
05/25/2025,21:13:15.57,6.84,93.26,-1016.60,-1.68,-0.49,9.21,
05/25/2025,21:13:15.59,-30.27,-69.34,-951.17,2.07,3.35,8.17,
05/25/2025,21:13:15.61,-20.02,-41.02,-1000.49,0.34,6.04,8.69,
05/25/2025,21:13:15.63,-15.62,-22.46,-1009.77,-9.91,6.68,6.37,
05/25/2025,21:13:15.65,20.51,-7.32,-1089.84,-2.84,1.10,10.03,
05/25/2025,21:13:15.67,-0.49,-7.81,-1009.77,1.28,0.30,10.21,
05/25/2025,21:13:15.69,19.53,-99.61,-1016.11,6.28,0.82,3.72,
05/25/2025,21:13:15.71,1.46,-61.04,-1020.02,4.33,-0.21,2.47,
05/25/2025,21:13:15.73,2.44,-42.48,-1026.37,-0.79,3.05,-2.01,
05/25/2025,21:13:15.75,4.39,-53.71,-1027.34,-1.65,0.82,1.46,
05/25/2025,21:13:15.77,-9.77,-52.25,-1038.09,-1.52,1.55,1.01,
05/25/2025,21:13:15.79,15.14,-34.67,-1020.51,-3.84,4.27,-2.16,
05/25/2025,21:13:15.81,17.58,-36.13,-1024.41,-4.39,3.35,-5.67,
05/25/2025,21:13:15.83,12.70,-24.41,-1018.55,-2.01,6.34,-2.56,
05/25/2025,21:13:15.85,6.84,-35.16,-1028.81,-4.33,2.23,-4.63,
05/25/2025,21:13:15.87,21.48,-28.81,-1019.53,0.43,0.64,-2.44,
05/25/2025,21:13:15.92,19.53,-26.37,-1031.74,0.37,2.10,1.95,
05/25/2025,21:13:15.94,19.04,-27.83,-1034.18,-1.83,1.52,-1.68,
05/25/2025,21:13:15.96,26.86,-37.60,-1025.88,-0.70,1.46,-1.34,
05/25/2025,21:13:15.98,15.62,-24.90,-1018.55,1.34,2.84,-2.96,
05/25/2025,21:13:16.00,1.95,-21.97,-1021.97,1.95,1.43,-1.52,
05/25/2025,21:13:16.02,6.35,-19.04,-1036.62,4.57,1.86,-1.04,
05/25/2025,21:13:16.04,1.95,-22.95,-1014.16,4.66,2.29,-0.85,
05/25/2025,21:13:16.06,10.25,-32.71,-1016.60,1.74,2.07,2.99,
05/25/2025,21:13:16.08,16.11,-43.46,-1012.70,0.12,2.13,-0.76,
05/25/2025,21:13:16.10,33.20,-30.76,-1023.44,0.82,4.05,4.88,
05/25/2025,21:13:16.12,10.74,-22.95,-1022.46,5.76,0.55,10.52,
05/25/2025,21:13:16.14,7.81,-26.37,-1031.74,4.85,2.07,2.07,
05/25/2025,21:13:16.16,20.51,-34.67,-1017.09,-0.06,1.62,1.04,
05/25/2025,21:13:16.18,22.46,-22.95,-1011.72,-2.32,2.16,2.07,
05/25/2025,21:13:16.20,17.09,-19.04,-1029.30,-1.37,2.38,0.12,
05/25/2025,21:13:16.22,15.62,-17.09,-1039.06,-2.90,3.48,-1.16,
05/25/2025,21:13:16.24,7.81,-24.41,-1015.14,-3.48,3.84,-1.59,
05/25/2025,21:13:16.26,13.67,-23.93,-1016.60,0.00,1.22,-1.22,
05/25/2025,21:13:16.28,10.25,-18.07,-1014.65,2.23,3.69,-0.88,
05/25/2025,21:13:16.30,20.51,-29.79,-1025.88,1.68,2.93,-1.10,
05/25/2025,21:13:16.32,16.60,-31.25,-1028.32,0.12,2.56,2.10,
05/25/2025,21:13:16.34,21.00,-21.00,-1011.72,3.45,1.37,-2.59,
05/25/2025,21:13:16.36,2.93,-29.79,-1020.02,6.98,0.09,-1.04,
05/25/2025,21:13:16.38,21.97,-31.25,-1037.60,8.23,0.37,-0.24,
05/25/2025,21:13:16.43,5.86,-28.32,-1024.41,0.76,2.77,-0.70,
05/25/2025,21:13:16.45,14.65,-32.71,-1021.00,2.07,3.11,-0.70,
05/25/2025,21:13:16.47,1.46,-26.37,-1026.37,5.79,-0.85,-1.37,
05/25/2025,21:13:16.49,3.42,-28.81,-1020.51,7.50,-1.92,0.46,
05/25/2025,21:13:16.51,11.23,-43.95,-1036.62,3.08,-0.82,-1.13,
05/25/2025,21:13:16.53,5.37,-42.97,-1031.25,5.37,2.68,-0.64,
05/25/2025,21:13:16.55,10.74,-34.67,-1029.79,4.76,1.31,2.13,
05/25/2025,21:13:16.57,0.00,-40.04,-1023.44,3.57,1.25,-1.43,
05/25/2025,21:13:16.59,12.70,-43.46,-1021.97,0.73,2.77,-2.13,
05/25/2025,21:13:16.61,4.88,-44.92,-1024.90,-0.40,2.96,-1.68,
05/25/2025,21:13:16.63,4.88,-47.85,-1036.62,1.80,1.86,-1.95,
05/25/2025,21:13:16.65,2.44,-38.09,-1012.70,2.50,2.68,-2.62,
05/25/2025,21:13:16.67,18.07,-47.36,-1026.86,-0.12,1.49,0.76,
05/25/2025,21:13:16.69,6.35,-42.48,-1021.00,-1.46,4.60,-0.34,
05/25/2025,21:13:16.71,13.18,-40.04,-1024.41,0.12,4.05,3.84,
05/25/2025,21:13:16.73,3.91,-27.83,-1023.93,3.90,0.88,-1.46,
05/25/2025,21:13:16.75,17.09,-40.04,-1022.46,1.83,3.93,-0.95,
05/25/2025,21:13:16.77,16.11,-35.64,-1027.34,2.99,1.40,-1.40,
05/25/2025,21:13:16.79,6.84,-39.55,-1019.04,2.84,1.37,2.71,
05/25/2025,21:13:16.81,12.21,-43.46,-1010.25,5.43,1.62,-0.46,
05/25/2025,21:13:16.83,0.00,-32.23,-1033.20,-0.67,3.26,-3.48,
05/25/2025,21:13:16.85,0.49,-41.99,-1025.88,-0.12,1.10,-0.70,
05/25/2025,21:13:16.87,9.28,-40.53,-1016.11,0.34,2.35,-2.10,
05/25/2025,21:13:16.89,16.60,-38.57,-1020.02,1.77,0.76,0.70,
05/25/2025,21:13:16.94,21.00,-27.83,-1028.32,1.19,1.28,-2.68,
05/25/2025,21:13:16.96,15.14,-29.30,-1020.02,1.37,1.10,-0.85,
05/25/2025,21:13:16.98,15.14,-31.74,-1022.95,0.49,2.07,0.34,
05/25/2025,21:13:17.00,10.25,-37.60,-1028.32,-1.01,2.47,-3.08,
05/25/2025,21:13:17.02,21.48,-30.76,-1021.00,0.76,-0.06,3.54,
05/25/2025,21:13:17.04,21.00,-41.99,-1033.69,3.26,-0.61,0.24,
05/25/2025,21:13:17.06,10.25,-34.18,-1021.97,2.68,2.41,-0.70,
05/25/2025,21:13:17.08,15.62,-36.13,-1009.28,0.67,4.12,-3.69,
05/25/2025,21:13:17.10,7.32,-28.32,-1010.25,0.27,2.04,-0.61,
05/25/2025,21:13:17.12,13.18,-27.34,-1016.60,0.30,3.93,-1.49,
05/25/2025,21:13:17.14,17.58,-26.37,-1030.76,-0.24,2.10,0.49,
05/25/2025,21:13:17.16,27.34,-30.76,-1033.69,4.88,2.71,0.61,
05/25/2025,21:13:17.18,-1.95,-43.46,-1023.93,2.77,3.17,0.88,
05/25/2025,21:13:17.20,17.58,-43.46,-1024.90,-0.40,5.21,-3.26,
05/25/2025,21:13:17.22,16.11,-43.46,-1021.00,-0.06,1.46,-0.34,
05/25/2025,21:13:17.24,9.77,-38.57,-1010.74,-0.43,2.77,-2.68,
05/25/2025,21:13:17.26,20.51,-28.81,-1024.41,3.84,-1.28,-1.52,
05/25/2025,21:13:17.28,15.62,-22.46,-1023.93,-2.53,4.48,-0.49,
05/25/2025,21:13:17.30,16.60,-34.67,-1021.48,-3.29,6.77,-1.98,
05/25/2025,21:13:17.32,12.70,-34.67,-1022.46,0.67,2.35,4.88,
05/25/2025,21:13:17.34,4.39,-27.34,-1031.74,4.12,-0.18,-4.09,
05/25/2025,21:13:17.36,15.62,-29.79,-1020.02,5.76,-0.85,-0.24,
05/25/2025,21:13:17.38,4.39,-34.18,-1031.74,2.74,-0.52,-0.70,
05/25/2025,21:13:17.40,4.39,-27.34,-1030.76,1.80,3.08,-2.07,
05/25/2025,21:13:17.47,5.86,-34.18,-1015.62,2.20,2.23,-3.57,
05/25/2025,21:13:17.49,22.46,-32.23,-1027.34,2.32,1.22,3.81,
05/25/2025,21:13:17.51,7.81,-40.04,-1021.00,1.16,1.86,-0.61,
05/25/2025,21:13:17.53,2.44,-32.71,-1015.14,0.88,-1.59,1.83,
05/25/2025,21:13:17.55,8.79,-40.04,-1009.77,1.04,1.65,-0.91,
05/25/2025,21:13:17.57,20.02,-30.27,-1034.67,1.55,3.14,1.25,
05/25/2025,21:13:17.59,21.97,-30.76,-1021.48,0.15,2.29,-2.77,
05/25/2025,21:13:17.61,11.23,-27.83,-1018.55,1.83,2.87,0.24,
05/25/2025,21:13:17.63,27.83,-43.46,-1022.46,1.95,1.55,-2.59,
05/25/2025,21:13:17.65,16.11,-39.55,-1022.46,3.69,0.85,0.73,
05/25/2025,21:13:17.67,20.51,-31.25,-1024.90,1.52,0.98,0.67,
05/25/2025,21:13:17.69,15.14,-47.36,-1021.00,3.54,2.16,-0.24,
05/25/2025,21:13:17.71,3.42,-29.30,-1021.00,1.77,1.25,-2.80,
05/25/2025,21:13:17.73,4.39,-31.74,-1026.86,3.78,4.18,-0.46,
05/25/2025,21:13:17.75,11.72,-36.13,-1027.83,0.43,1.65,-0.27,
05/25/2025,21:13:17.77,20.02,-34.18,-1023.93,3.05,1.22,-1.34,
05/25/2025,21:13:17.79,16.11,-27.34,-1017.09,4.30,0.95,1.19,
05/25/2025,21:13:17.81,17.09,-32.23,-1018.55,1.68,-1.22,0.18,
05/25/2025,21:13:17.83,13.18,-29.79,-1018.07,0.91,1.40,-0.82,
05/25/2025,21:13:17.85,0.00,-39.55,-1028.81,4.57,2.56,-2.13,
05/25/2025,21:13:17.87,10.25,-30.27,-1015.14,1.71,2.35,0.27,
05/25/2025,21:13:17.89,10.74,-40.53,-1021.97,-0.15,1.74,-1.10,
05/25/2025,21:13:17.91,10.25,-32.71,-1012.21,4.24,1.83,-1.04,
05/25/2025,21:13:17.97,22.95,-51.76,-1017.09,1.49,-1.34,2.50,
05/25/2025,21:13:17.99,9.28,-39.55,-1008.30,-0.27,3.26,0.79,
05/25/2025,21:13:18.01,6.84,-41.02,-1023.93,3.90,1.65,-2.29,
05/25/2025,21:13:18.03,19.04,-39.06,-1024.41,2.32,-0.82,-3.66,
05/25/2025,21:13:18.05,19.53,-39.06,-1016.60,-1.65,0.58,-2.44,
05/25/2025,21:13:18.07,3.91,-26.86,-1018.55,-2.20,2.01,-2.04,
05/25/2025,21:13:18.09,10.25,-39.55,-1030.76,0.15,2.44,-2.01,
05/25/2025,21:13:18.11,12.70,-24.90,-1038.09,1.40,2.62,-3.26,
05/25/2025,21:13:18.13,13.67,-37.60,-1025.88,-2.59,5.55,0.06,
05/25/2025,21:13:18.15,14.65,-47.85,-1028.81,-2.44,4.21,0.46,
05/25/2025,21:13:18.17,15.14,-30.76,-1017.58,2.35,1.19,-0.21,
05/25/2025,21:13:18.19,15.14,-26.37,-1015.62,2.68,-1.13,0.37,
05/25/2025,21:13:18.21,5.37,-46.39,-1037.60,3.35,3.17,-1.77,
05/25/2025,21:13:18.23,7.32,-27.34,-1028.32,2.32,6.22,-0.70,
05/25/2025,21:13:18.25,-2.44,-26.37,-1021.48,0.98,2.35,0.58,
05/25/2025,21:13:18.27,7.81,-24.41,-1023.44,0.76,3.57,-0.34,
05/25/2025,21:13:18.29,-22.46,-10.74,-1013.18,-0.24,1.74,-0.70,
05/25/2025,21:13:18.31,19.53,-41.99,-1032.71,3.41,2.74,-0.67,
05/25/2025,21:13:18.33,11.72,-27.34,-1015.62,2.32,1.89,-1.62,
05/25/2025,21:13:18.35,15.62,-43.95,-1032.71,2.47,0.00,-1.40,
05/25/2025,21:13:18.37,18.55,-40.53,-1022.95,3.05,0.70,-2.56,
05/25/2025,21:13:18.39,17.09,-44.92,-1024.41,0.73,0.18,-2.07,
05/25/2025,21:13:18.41,10.74,-32.71,-1021.48,3.54,-0.82,-1.31,
05/25/2025,21:13:18.43,5.37,-52.73,-1014.65,1.71,0.46,-3.05,
05/25/2025,21:13:18.49,4.88,-30.76,-1016.60,1.31,-0.06,1.89,
05/25/2025,21:13:18.51,8.30,-32.23,-1020.51,3.51,2.13,0.95,
05/25/2025,21:13:18.53,11.72,-32.23,-1036.62,-0.58,1.13,0.61,
05/25/2025,21:13:18.55,23.93,-30.76,-1028.32,-1.31,2.16,2.38,
05/25/2025,21:13:18.57,15.62,-35.16,-1035.16,-0.03,2.84,0.64,
05/25/2025,21:13:18.59,15.62,-39.55,-1030.76,0.06,2.29,4.57,
05/25/2025,21:13:18.61,16.11,-32.71,-1029.30,-0.18,1.71,-1.16,
05/25/2025,21:13:18.63,15.62,-34.18,-1022.46,0.40,-0.09,-1.10,
05/25/2025,21:13:18.65,18.07,-40.53,-1017.09,1.86,2.74,-2.44,
05/25/2025,21:13:18.67,15.62,-48.34,-1026.86,-2.77,5.88,-2.80,
05/25/2025,21:13:18.69,3.42,-30.76,-1005.37,-14.70,7.04,-4.12,
05/25/2025,21:13:18.71,-20.51,-28.32,-1117.19,-4.33,5.00,0.85,
05/25/2025,21:13:18.73,17.58,-21.00,-1018.07,0.67,-0.70,-6.40,
05/25/2025,21:13:18.75,11.72,-29.30,-1019.53,2.90,-0.98,-3.32,
05/25/2025,21:13:18.77,7.81,-21.97,-1027.83,0.61,-0.37,-3.05,
05/25/2025,21:13:18.79,14.65,-32.23,-1033.69,2.20,1.10,-1.28,
05/25/2025,21:13:18.81,24.41,-19.53,-1026.86,1.92,2.01,-1.49,
05/25/2025,21:13:18.83,19.04,-21.48,-1015.14,2.65,0.46,-2.01,
05/25/2025,21:13:18.85,14.16,-28.81,-1019.04,-1.40,3.08,-0.82,
05/25/2025,21:13:18.87,8.30,-12.21,-1021.97,2.38,1.77,0.85,
05/25/2025,21:13:18.89,1.46,-37.60,-1026.37,2.32,2.47,-1.25,
05/25/2025,21:13:18.91,11.23,-30.27,-1028.81,0.15,0.49,0.61,
05/25/2025,21:13:18.93,11.23,-28.32,-1026.86,0.88,3.41,0.00,
05/25/2025,21:13:18.95,8.79,-34.18,-1016.60,1.46,-0.18,0.21,
05/25/2025,21:13:19.00,22.95,-29.79,-1021.48,1.19,2.87,-7.77,
05/25/2025,21:13:19.02,12.70,-11.72,-1023.44,2.10,2.10,-6.65,
05/25/2025,21:13:19.04,25.88,-21.97,-1029.79,3.05,2.26,-5.24,
05/25/2025,21:13:19.06,15.14,-27.83,-1022.46,2.41,3.84,-2.41,
05/25/2025,21:13:19.08,16.11,-23.44,-1026.37,1.31,4.88,-2.16,
05/25/2025,21:13:19.10,16.11,-34.18,-1027.34,1.89,3.23,3.23,
05/25/2025,21:13:19.12,15.14,-31.74,-1036.62,-1.07,3.38,0.00,
05/25/2025,21:13:19.14,19.53,-25.88,-1025.88,-1.52,1.83,7.50,
05/25/2025,21:13:19.16,7.32,-24.90,-1023.44,0.82,4.66,1.74,
05/25/2025,21:13:19.18,16.60,-35.16,-1016.11,1.37,2.74,3.69,
05/25/2025,21:13:19.20,16.60,-22.46,-1025.88,3.99,1.52,6.86,
05/25/2025,21:13:19.22,20.02,-20.51,-1028.32,3.08,-1.46,6.01,
05/25/2025,21:13:19.24,15.62,-24.90,-1022.46,5.18,1.43,5.85,
05/25/2025,21:13:19.26,15.14,-33.20,-1025.39,5.40,-0.21,5.61,
05/25/2025,21:13:19.28,7.32,-41.99,-1024.41,1.62,1.04,5.03,
05/25/2025,21:13:19.30,14.65,-35.64,-1032.71,1.98,1.62,3.08,
05/25/2025,21:13:19.32,18.55,-35.16,-1025.39,3.87,-1.46,-1.49,
05/25/2025,21:13:19.34,6.84,-24.90,-1021.48,4.15,1.01,-0.30,
05/25/2025,21:13:19.36,17.09,-30.27,-1028.32,5.09,1.34,3.29,
05/25/2025,21:13:19.38,9.28,-19.04,-1018.07,9.82,-3.90,1.62,
05/25/2025,21:13:19.40,11.72,-39.06,-1037.11,6.52,-2.16,2.68,
05/25/2025,21:13:19.42,14.16,-41.50,-1030.76,-0.34,5.03,-2.59,
05/25/2025,21:13:19.44,24.90,-47.85,-1024.41,-1.40,4.45,-14.15,
05/25/2025,21:13:19.46,-93.26,-3.91,-954.59,-3.08,4.76,-19.18,
05/25/2025,21:13:19.51,-17.09,127.44,-1061.52,-3.72,0.88,-24.09,
05/25/2025,21:13:19.54,15.14,19.04,-1026.86,-2.74,3.54,-13.08,
05/25/2025,21:13:19.56,-5.37,11.23,-1022.95,2.20,4.09,-1.28,
05/25/2025,21:13:19.58,6.35,-28.81,-1018.07,1.80,5.85,-1.19,
05/25/2025,21:13:19.60,14.16,-29.79,-1027.83,4.02,2.99,3.02,
05/25/2025,21:13:19.62,27.34,-35.16,-1013.18,5.09,2.01,4.82,
05/25/2025,21:13:19.64,21.00,-21.97,-1024.41,3.32,2.20,8.32,
05/25/2025,21:13:19.66,12.21,-26.37,-1029.30,4.09,2.50,9.79,
05/25/2025,21:13:19.68,22.46,-8.79,-1022.46,7.56,-0.95,10.73,
05/25/2025,21:13:19.70,21.00,-29.30,-1027.34,6.89,-0.34,21.62,
05/25/2025,21:13:19.72,8.30,-50.29,-1021.00,3.84,0.40,21.89,
05/25/2025,21:13:19.74,22.46,-34.18,-1014.16,6.52,-2.13,18.57,
05/25/2025,21:13:19.76,10.25,-29.79,-1012.70,12.10,-1.07,5.85,
05/25/2025,21:13:19.78,20.02,-24.41,-1037.60,15.49,-2.07,-0.98,
05/25/2025,21:13:19.80,80.08,22.46,-1031.74,8.51,2.53,10.88,
05/25/2025,21:13:19.82,289.06,1.46,-956.54,-5.15,14.85,26.92,
05/25/2025,21:13:19.84,172.36,-55.18,-1038.09,1.68,4.82,18.60,
05/25/2025,21:13:19.86,28.81,-32.71,-1058.11,9.91,-1.40,13.08,
05/25/2025,21:13:19.88,71.29,-52.73,-1052.25,8.51,3.63,5.58,
05/25/2025,21:13:19.90,-245.12,-150.39,-952.64,9.57,-4.12,-2.77,
05/25/2025,21:13:19.92,16.60,-53.71,-1022.46,9.91,-3.93,-0.34,
05/25/2025,21:13:19.94,305.66,3.42,-1059.08,17.90,4.54,3.26,
05/25/2025,21:13:19.96,19.53,-53.22,-1043.46,12.59,-6.46,10.82,
05/25/2025,21:13:19.98,344.24,-91.31,-1109.86,25.55,3.96,9.12,
05/25/2025,21:13:20.03,6.84,-91.31,-1018.07,21.10,1.89,-3.60,
05/25/2025,21:13:20.05,0.00,-98.14,-1027.34,4.79,1.52,-2.90,
05/25/2025,21:13:20.07,-14.65,-44.92,-1059.08,1.92,2.87,-4.18,
05/25/2025,21:13:20.09,47.85,-116.21,-1041.50,21.13,0.52,-6.22,
05/25/2025,21:13:20.11,-216.80,-127.44,-816.41,18.29,-10.79,-8.41,
05/25/2025,21:13:20.13,-65.43,-93.26,-994.63,11.40,-14.18,-10.58,
05/25/2025,21:13:20.15,-18.07,-169.92,-983.40,10.95,-7.80,-5.67,
05/25/2025,21:13:20.17,-81.05,-113.28,-1013.67,10.18,3.54,-3.14,
05/25/2025,21:13:20.19,-13.67,-119.63,-1021.00,-2.10,2.10,8.66,
05/25/2025,21:13:20.21,-26.37,-107.42,-1018.55,0.24,1.40,0.82,
05/25/2025,21:13:20.23,9.28,-105.47,-1002.93,0.46,2.74,-2.74,
05/25/2025,21:13:20.25,1.46,-104.98,-1007.81,-4.15,1.19,-3.60,
05/25/2025,21:13:20.27,-4.88,-110.84,-1016.11,-6.59,1.07,-6.95,
05/25/2025,21:13:20.29,-16.11,-96.19,-999.02,-2.13,-12.74,-12.90,
05/25/2025,21:13:20.31,-7.32,-112.79,-998.05,-14.73,0.55,-7.20,
05/25/2025,21:13:20.33,11.72,-90.33,-1033.20,-34.39,-8.99,-13.48,
05/25/2025,21:13:20.35,-11.23,-77.15,-1000.00,-16.65,-6.37,0.67,
05/25/2025,21:13:20.37,-19.04,-83.98,-1030.76,-13.75,-11.52,-1.04,
05/25/2025,21:13:20.39,-22.46,-76.66,-1005.86,-12.90,-26.52,-11.52,
05/25/2025,21:13:20.41,-34.67,-84.47,-1001.95,3.11,-34.42,-31.74,
05/25/2025,21:13:20.43,-132.32,-30.27,-999.02,8.57,-23.81,-25.49,
05/25/2025,21:13:20.45,-805.66,142.58,-915.04,16.43,-58.66,-37.90,
05/25/2025,21:13:20.47,-175.29,-108.40,-998.54,-5.73,-5.27,-20.09,
05/25/2025,21:13:20.49,-22.46,-110.84,-1029.30,-5.00,3.41,-4.88,
05/25/2025,21:13:20.54,-51.76,-87.40,-1021.48,21.92,-9.05,1.89,
05/25/2025,21:13:20.56,-88.38,-89.36,-1022.46,33.78,-15.18,4.18,
05/25/2025,21:13:20.58,-63.96,-97.17,-1021.00,15.95,6.74,11.34,
05/25/2025,21:13:20.60,-77.64,-131.35,-1018.07,14.27,6.16,11.01,
05/25/2025,21:13:20.62,-84.47,-113.28,-1012.21,1.43,4.45,15.88,
05/25/2025,21:13:20.64,-65.43,-109.38,-1020.51,5.67,7.07,15.95,
05/25/2025,21:13:20.66,-72.27,-102.54,-1013.18,5.21,-1.13,7.59,
05/25/2025,21:13:20.68,-79.10,-125.00,-1035.16,8.69,-4.97,-7.50,
05/25/2025,21:13:20.70,28.32,-263.67,-916.99,5.09,-2.87,-7.77,
05/25/2025,21:13:20.72,-111.82,-88.38,-1023.93,4.60,-3.11,-12.26,
05/25/2025,21:13:20.74,102.54,-17.09,-1039.55,-0.46,-6.43,20.61,
05/25/2025,21:13:20.76,-280.27,126.95,-937.01,-12.84,9.70,15.67,
05/25/2025,21:13:20.78,28.81,-252.44,-1066.41,-2.50,8.26,23.84,
05/25/2025,21:13:20.80,-40.53,-75.20,-1042.97,7.74,0.55,28.41,
05/25/2025,21:13:20.82,302.25,176.27,-1021.00,2.10,2.41,45.43,
05/25/2025,21:13:20.84,203.12,163.09,-1072.75,-17.80,0.64,64.70,
05/25/2025,21:13:20.86,60.06,20.02,-944.82,-35.49,-7.71,48.75,
05/25/2025,21:13:20.88,-93.75,-78.12,-1032.71,-21.55,-20.98,-14.05,
05/25/2025,21:13:20.90,-104.00,-72.75,-1010.74,-15.58,-23.20,-6.31,
05/25/2025,21:13:20.92,-93.26,-73.24,-1043.95,-8.29,-15.27,-6.65,
05/25/2025,21:13:20.94,-118.16,-73.73,-1012.21,-4.70,-8.05,3.75,
05/25/2025,21:13:20.96,-138.18,-99.61,-984.86,4.88,14.36,-30.15,
05/25/2025,21:13:20.98,-114.75,-65.92,-1157.23,13.05,49.18,-68.14,
05/25/2025,21:13:21.00,-83.50,-89.36,-1151.86,-25.21,71.37,-93.72,
05/25/2025,21:13:21.06,-191.89,189.45,-872.56,12.77,-3.81,-132.56,
05/25/2025,21:13:21.08,-128.42,75.68,-1269.53,-5.24,37.62,-71.92,
05/25/2025,21:13:21.10,21.00,-17.09,-1060.55,0.79,-1.07,-58.05,
05/25/2025,21:13:21.12,5.37,-20.02,-1035.64,5.24,-3.78,-21.68,
05/25/2025,21:13:21.14,7.81,19.53,-1023.44,-9.45,9.27,-26.31,
05/25/2025,21:13:21.16,-11.72,-13.67,-1018.55,6.25,-2.50,-20.85,
05/25/2025,21:13:21.18,-40.53,161.62,-991.70,-8.57,5.52,-14.15,
05/25/2025,21:13:21.20,28.32,-171.39,-951.17,-4.82,-7.87,11.22,
05/25/2025,21:13:21.22,-41.02,132.81,-870.12,0.30,-2.01,-7.26,
05/25/2025,21:13:21.24,-117.19,-306.64,-842.77,-0.40,1.65,0.06,
05/25/2025,21:13:21.26,4.88,66.41,-1044.92,-0.64,14.27,38.90,
05/25/2025,21:13:21.28,-8.79,9.28,-987.79,-0.03,-0.06,39.70,
05/25/2025,21:13:21.30,-12.21,-1.46,-1012.21,3.05,0.98,33.72,
05/25/2025,21:13:21.32,7.32,-42.48,-1034.67,0.61,8.87,10.40,
05/25/2025,21:13:21.34,5.37,-26.37,-1039.06,-1.28,6.49,0.21,
05/25/2025,21:13:21.36,7.81,-9.77,-1016.11,-3.14,3.93,-0.18,
05/25/2025,21:13:21.38,6.35,-26.86,-1005.37,2.44,0.70,-3.20,
05/25/2025,21:13:21.40,21.48,-18.55,-1019.04,3.38,0.40,-1.46,
05/25/2025,21:13:21.42,9.28,-20.02,-1021.00,2.99,0.49,-0.85,
05/25/2025,21:13:21.44,7.32,-12.21,-1016.60,2.23,-0.73,-0.40,
05/25/2025,21:13:21.46,19.04,-21.00,-1036.13,5.30,-5.09,-0.98,
05/25/2025,21:13:21.48,2.44,-25.39,-1018.07,8.35,-10.49,-3.69,
05/25/2025,21:13:21.50,-6.35,-20.02,-1026.37,8.38,-3.02,-0.03,
05/25/2025,21:13:21.52,-18.07,65.92,-1015.14,15.88,-6.86,-2.71,
05/25/2025,21:13:21.58,54.20,310.55,-1151.86,-2.80,11.65,-11.83,
05/25/2025,21:13:21.60,-29.79,-168.46,-1043.46,2.29,-4.33,-2.62,
05/25/2025,21:13:21.62,31.25,95.21,-997.07,1.16,-1.95,3.60,
05/25/2025,21:13:21.64,21.97,390.14,-853.03,0.91,6.62,27.50,
05/25/2025,21:13:21.66,132.32,-387.21,-1083.98,2.96,6.22,95.09,
05/25/2025,21:13:21.68,5.37,-88.87,-831.54,-18.51,5.40,105.34,
05/25/2025,21:13:21.70,-47.36,-129.88,-1035.16,-5.30,13.29,82.71,
05/25/2025,21:13:21.72,4.39,54.20,-996.58,-0.30,9.57,62.65,
05/25/2025,21:13:21.74,93.75,210.94,-1196.29,-0.30,1.98,61.86,
05/25/2025,21:13:21.76,17.09,82.03,-1131.84,2.35,4.57,44.05,
05/25/2025,21:13:21.78,24.90,16.11,-1063.48,-10.09,0.46,26.04,
05/25/2025,21:13:21.80,4.39,-82.52,-1018.07,-3.14,3.05,14.82,
05/25/2025,21:13:21.82,11.72,-63.48,-1020.51,5.67,-1.59,0.24,
05/25/2025,21:13:21.84,21.97,-51.27,-1052.73,0.40,3.48,-15.85,
05/25/2025,21:13:21.86,17.58,-30.27,-1000.49,2.56,-1.37,-37.74,
05/25/2025,21:13:21.88,17.58,-34.67,-996.58,1.86,-0.34,-55.12,
05/25/2025,21:13:21.90,-75.68,-53.22,-1022.46,-0.46,-0.76,-36.89,
05/25/2025,21:13:21.92,-5.86,-6.84,-1024.90,0.82,0.06,-16.55,
05/25/2025,21:13:21.94,-4.88,-27.34,-1007.81,1.16,3.54,-9.21,
05/25/2025,21:13:21.96,13.67,1.46,-1041.99,2.50,-2.10,-27.74,
05/25/2025,21:13:21.98,-4.88,-11.72,-1034.67,1.43,0.91,-35.73,
05/25/2025,21:13:22.00,18.55,-18.55,-1032.23,3.38,0.06,-23.35,
05/25/2025,21:13:22.02,-4.88,-21.97,-1020.02,2.41,0.12,-19.88,
05/25/2025,21:13:22.04,-7.81,-21.97,-1022.95,0.70,1.52,-11.68,
05/25/2025,21:13:22.10,0.98,-24.90,-1026.37,3.63,5.46,12.84,
05/25/2025,21:13:22.12,7.81,-19.53,-1034.18,0.00,8.32,14.63,
05/25/2025,21:13:22.14,19.53,-61.04,-995.12,-5.67,2.53,14.45,
05/25/2025,21:13:22.16,1.46,-49.80,-1030.27,-0.27,3.32,7.90,
05/25/2025,21:13:22.18,32.71,-14.16,-1031.74,-9.54,6.89,-2.04,
05/25/2025,21:13:22.20,12.70,-14.65,-1000.49,-2.47,2.26,2.68,
05/25/2025,21:13:22.22,9.28,8.30,-1009.28,-1.34,4.48,4.02,
05/25/2025,21:13:22.24,15.62,-27.34,-1027.83,2.74,4.18,4.39,
05/25/2025,21:13:22.26,27.34,-44.92,-1012.21,3.78,4.42,-0.98,
05/25/2025,21:13:22.28,11.23,68.36,-1136.72,4.18,4.18,-0.79,
05/25/2025,21:13:22.30,22.46,-32.71,-1047.36,11.04,8.41,-0.40,
05/25/2025,21:13:22.32,16.11,-35.64,-1042.48,1.62,4.66,16.68,
05/25/2025,21:13:22.34,23.44,-21.00,-1008.30,-1.62,-0.98,2.29,
05/25/2025,21:13:22.36,15.14,-9.28,-1066.89,0.21,5.18,28.08,
05/25/2025,21:13:22.38,-15.14,-9.28,-997.56,-2.50,6.01,69.57,
05/25/2025,21:13:22.40,-408.69,-129.39,-872.07,-6.40,-1.04,68.51,
05/25/2025,21:13:22.42,-119.14,-72.75,-986.33,-11.25,-0.61,59.60,
05/25/2025,21:13:22.44,-142.09,-23.44,-1062.50,-5.61,6.62,44.79,
05/25/2025,21:13:22.46,60.06,-43.46,-1021.97,3.32,0.70,37.62,
05/25/2025,21:13:22.48,64.94,-80.08,-1055.66,6.52,-2.23,3.93,
05/25/2025,21:13:22.50,27.83,-71.78,-1062.99,2.38,-7.99,-21.59,
05/25/2025,21:13:22.52,-1.46,-109.86,-1071.78,11.65,-6.31,-45.52,
05/25/2025,21:13:22.54,-21.00,-69.82,-1047.36,16.55,-4.60,-57.29,
05/25/2025,21:13:22.56,72.27,-6.35,-990.72,13.05,-8.72,-48.41,
05/25/2025,21:13:22.62,-11.72,-41.02,-1034.18,-0.67,4.88,-0.03,
05/25/2025,21:13:22.64,3.42,-26.37,-1024.90,0.09,3.48,-1.83,
05/25/2025,21:13:22.66,3.91,-15.62,-1028.81,0.03,3.60,0.58,
05/25/2025,21:13:22.68,11.23,-24.90,-1028.81,-0.52,1.04,7.53,
05/25/2025,21:13:22.70,27.34,-20.51,-1031.25,-1.13,1.43,4.33,
05/25/2025,21:13:22.72,18.55,-43.46,-1030.27,1.13,3.20,3.20,
05/25/2025,21:13:22.74,6.35,-8.79,-1036.62,-2.68,2.20,9.18,
05/25/2025,21:13:22.76,4.39,-14.65,-1038.09,-5.03,2.04,14.45,
05/25/2025,21:13:22.78,13.18,19.04,-1029.79,-7.96,5.85,10.24,
05/25/2025,21:13:22.80,32.71,-39.06,-1021.00,-6.07,4.27,1.65,
05/25/2025,21:13:22.82,45.41,-61.52,-1024.90,1.92,1.34,5.73,
05/25/2025,21:13:22.84,10.25,-7.81,-1019.04,1.16,1.40,3.51,
05/25/2025,21:13:22.86,23.93,-26.37,-1021.00,1.04,3.99,10.82,
05/25/2025,21:13:22.88,7.32,-49.32,-1014.65,-0.76,1.92,16.34,
05/25/2025,21:13:22.90,66.89,-85.94,-1032.71,7.44,5.98,17.13,
05/25/2025,21:13:22.92,-36.62,411.62,-1162.11,2.59,5.79,9.88,
05/25/2025,21:13:22.94,-37.11,211.43,-1055.66,-5.58,0.76,19.63,
05/25/2025,21:13:22.96,-36.13,-40.04,-1023.93,6.71,-0.15,32.87,
05/25/2025,21:13:22.98,57.13,-59.08,-1026.37,5.88,-0.46,23.93,
05/25/2025,21:13:23.00,16.11,-63.96,-979.49,2.77,5.03,17.90,
05/25/2025,21:13:23.02,32.71,-2.44,-1018.07,2.01,6.68,9.94,
05/25/2025,21:13:23.04,20.02,85.45,-1090.82,0.12,6.31,8.84,
05/25/2025,21:13:23.06,41.02,-372.56,-884.77,-32.87,51.31,20.70,
05/25/2025,21:13:23.08,124.51,-59.57,-1060.55,-67.71,67.65,5.30,
05/25/2025,21:13:23.13,147.46,68.85,-954.10,15.03,71.71,16.37,
05/25/2025,21:13:23.15,197.75,96.68,-1023.44,12.87,33.14,12.71,
05/25/2025,21:13:23.17,227.05,147.95,-932.13,-5.55,27.77,16.62,
05/25/2025,21:13:23.19,216.80,9.28,-965.33,-5.70,42.16,13.87,
05/25/2025,21:13:23.21,211.43,-50.29,-918.46,-3.51,21.31,0.79,
05/25/2025,21:13:23.23,197.75,36.13,-1039.55,9.30,11.68,-1.22,
05/25/2025,21:13:23.25,234.86,33.20,-992.19,13.11,22.04,0.00,
05/25/2025,21:13:23.27,222.66,34.18,-1033.20,1.46,18.57,-7.87,
05/25/2025,21:13:23.29,205.57,25.88,-963.38,-12.90,36.01,-3.87,
05/25/2025,21:13:23.31,201.66,-17.58,-1109.86,-0.03,33.99,3.57,
05/25/2025,21:13:23.33,218.26,6.84,-1036.62,0.15,43.72,1.10,
05/25/2025,21:13:23.35,259.77,23.93,-1024.41,4.42,75.85,-3.29,
05/25/2025,21:13:23.37,296.39,33.69,-1149.90,25.61,125.37,-8.17,
05/25/2025,21:13:23.39,308.11,40.53,-824.22,38.35,150.49,-14.51,
05/25/2025,21:13:23.41,356.93,6.35,-591.31,-1.83,96.46,-13.02,
05/25/2025,21:13:23.43,304.69,113.77,-1194.82,-18.84,20.00,-3.02,
05/25/2025,21:13:23.45,590.33,-37.11,-968.75,-5.61,8.05,2.23,
05/25/2025,21:13:23.47,546.39,-70.80,-1050.29,21.13,-5.18,19.94,
05/25/2025,21:13:23.49,305.66,66.41,-914.06,-4.70,-18.38,17.07,
05/25/2025,21:13:23.52,297.36,62.50,-914.06,-2.44,-4.73,13.57,
05/25/2025,21:13:23.54,88.38,55.66,-939.45,14.60,15.82,-11.86,
05/25/2025,21:13:23.56,406.25,34.67,-957.03,-3.90,6.04,-8.69,
05/25/2025,21:13:23.58,438.96,24.41,-1007.81,14.88,52.65,2.84,
05/25/2025,21:13:23.60,417.48,17.09,-1010.74,38.17,79.91,0.67,
05/25/2025,21:13:23.65,527.34,-42.97,-923.34,65.79,102.13,-8.93,
05/25/2025,21:13:23.67,608.89,-15.62,-995.12,93.63,152.93,-2.74,
05/25/2025,21:13:23.69,667.48,-115.72,-861.33,101.28,205.03,-12.80,
05/25/2025,21:13:23.71,581.54,-148.44,-673.34,94.66,181.07,-14.88,
05/25/2025,21:13:23.73,687.50,-83.98,-746.58,85.24,120.58,-18.63,
05/25/2025,21:13:23.75,700.68,-145.02,-663.57,85.00,122.65,-15.76,
05/25/2025,21:13:23.77,735.35,-219.73,-584.47,76.59,85.30,-5.34,
05/25/2025,21:13:23.79,750.98,-176.27,-535.64,85.24,73.69,17.71,
05/25/2025,21:13:23.81,818.85,-218.75,-669.92,64.51,95.52,8.45,
05/25/2025,21:13:23.83,812.50,-167.48,-570.80,57.65,102.96,9.79,
05/25/2025,21:13:23.85,849.61,-250.98,-614.26,48.48,90.79,8.75,
05/25/2025,21:13:23.87,795.90,-227.54,-521.48,45.88,79.94,13.14,
05/25/2025,21:13:23.89,757.32,-200.68,-433.59,42.38,65.64,18.41,
05/25/2025,21:13:23.91,817.87,-230.96,-487.79,27.77,53.29,21.13,
05/25/2025,21:13:23.93,849.61,-272.95,-463.87,23.48,73.87,8.96,
05/25/2025,21:13:23.95,791.50,-209.96,-380.37,8.29,31.77,-1.49,
05/25/2025,21:13:23.97,842.77,-264.65,-408.69,-1.34,5.00,-2.80,
05/25/2025,21:13:23.99,831.54,-264.65,-428.22,-6.62,-5.61,2.29,
05/25/2025,21:13:24.01,861.82,-250.00,-447.27,-2.01,-10.34,1.01,
05/25/2025,21:13:24.03,863.77,-260.25,-455.08,-1.62,-5.58,6.37,
05/25/2025,21:13:24.05,854.49,-266.60,-428.71,-0.40,-25.70,0.98,
05/25/2025,21:13:24.07,819.34,-264.16,-457.03,-6.71,-35.82,-5.03,
05/25/2025,21:13:24.09,823.24,-229.98,-423.34,-22.44,-65.49,-5.06,
05/25/2025,21:13:24.11,874.02,-236.82,-499.51,-34.48,-70.12,3.84,
05/25/2025,21:13:24.17,791.50,-227.05,-498.54,-27.71,-90.24,7.07,
05/25/2025,21:13:24.19,775.39,-278.81,-674.80,-48.81,-103.60,10.30,
05/25/2025,21:13:24.21,716.31,-217.29,-635.74,-59.27,-86.04,13.90,
05/25/2025,21:13:24.23,566.89,-197.27,-585.94,-73.57,-122.68,-4.70,
05/25/2025,21:13:24.25,620.61,-195.31,-677.73,-80.37,-205.61,-10.00,
05/25/2025,21:13:24.27,621.09,-161.13,-873.54,-75.34,-189.24,-3.23,
05/25/2025,21:13:24.29,657.71,-160.16,-930.18,-45.79,-105.82,-15.21,
05/25/2025,21:13:24.31,520.02,-128.91,-791.99,-46.10,-107.68,-12.29,
05/25/2025,21:13:24.33,374.51,-130.37,-852.05,-44.91,-163.38,-42.10,
05/25/2025,21:13:24.35,552.25,-113.28,-991.70,-49.85,-176.07,-39.91,
05/25/2025,21:13:24.37,518.55,-81.54,-1000.49,-32.68,-76.89,-24.24,
05/25/2025,21:13:24.39,352.05,-113.77,-925.78,-12.44,-34.02,-20.49,
05/25/2025,21:13:24.41,325.68,-96.68,-894.04,0.37,-56.10,-43.51,
05/25/2025,21:13:24.43,381.84,-63.96,-955.08,-2.74,-69.05,-53.02,
05/25/2025,21:13:24.45,466.31,-57.62,-988.77,1.22,-37.50,-27.71,
05/25/2025,21:13:24.47,375.00,-65.43,-976.56,15.73,-30.98,-16.28,
05/25/2025,21:13:24.49,315.92,-46.88,-996.58,23.78,-72.04,-19.18,
05/25/2025,21:13:24.51,413.57,-39.55,-965.82,6.83,-73.57,-11.04,
05/25/2025,21:13:24.53,366.70,-53.71,-958.98,-16.83,-20.40,12.16,
05/25/2025,21:13:24.55,281.25,-67.38,-988.77,-17.56,-23.35,12.90,
05/25/2025,21:13:24.57,314.45,-49.32,-979.49,-6.04,-25.46,21.34,
05/25/2025,21:13:24.59,203.12,-83.50,-984.38,-1.86,-13.84,23.69,
05/25/2025,21:13:24.61,234.86,-63.96,-886.72,-17.26,-20.15,5.79,
05/25/2025,21:13:24.63,293.95,-23.93,-994.63,-30.70,-12.84,13.38,
05/25/2025,21:13:24.68,273.93,-40.53,-1022.46,5.98,-2.47,9.45,
05/25/2025,21:13:24.70,238.77,-35.64,-915.53,19.63,-15.82,3.84,
05/25/2025,21:13:24.72,232.91,-23.44,-974.61,21.43,-32.53,8.93,
05/25/2025,21:13:24.74,204.59,-66.89,-955.08,18.17,-37.47,-5.03,
05/25/2025,21:13:24.76,436.04,101.56,-897.46,14.18,-61.49,9.27,
05/25/2025,21:13:24.78,173.83,-140.62,-1010.25,26.71,-73.81,23.60,
05/25/2025,21:13:24.80,-1.46,-250.98,-1280.76,2.59,-216.19,28.20,
05/25/2025,21:13:24.82,82.03,-23.44,-970.21,33.14,-111.22,37.96,
05/25/2025,21:13:24.84,53.22,-42.97,-850.10,47.10,-79.73,37.07,
05/25/2025,21:13:24.86,-169.43,-291.02,-719.24,20.98,-82.20,34.51,
05/25/2025,21:13:24.88,499.51,176.27,-1397.46,-26.46,56.10,-30.00,
05/25/2025,21:13:24.90,478.03,-151.86,-1611.33,-50.61,4.45,-64.73,
05/25/2025,21:13:24.92,-751.95,-698.24,-44.92,27.71,14.09,-40.55,
05/25/2025,21:13:24.94,60.55,-143.07,-1152.34,-32.04,-3.51,-78.51,
05/25/2025,21:13:24.96,484.38,181.15,-1355.47,-11.65,6.80,-72.50,
05/25/2025,21:13:24.98,106.93,-88.38,-382.81,8.14,4.30,-56.16,
05/25/2025,21:13:25.00,335.45,67.38,-1086.91,-18.87,0.98,-11.68,
05/25/2025,21:13:25.02,-203.12,23.93,-917.48,-20.67,2.90,-18.99,
05/25/2025,21:13:25.05,206.05,220.21,-1000.98,-17.90,6.01,-0.52,
05/25/2025,21:13:25.07,37.11,-31.25,-1046.88,1.07,3.63,-2.29,
05/25/2025,21:13:25.09,33.69,-19.04,-1020.02,0.88,-1.52,0.43,
05/25/2025,21:13:25.11,30.76,-66.89,-1017.09,-4.18,0.52,1.10,
05/25/2025,21:13:25.13,44.43,14.16,-1052.25,1.22,0.64,-3.75,
05/25/2025,21:13:25.15,8.30,-46.39,-999.02,-0.79,2.16,-0.24,
05/25/2025,21:13:25.19,18.55,-3.42,-1040.04,3.41,2.65,0.43,
05/25/2025,21:13:25.21,5.86,-24.41,-1035.64,2.44,0.55,0.88,
05/25/2025,21:13:25.23,10.74,-32.71,-1021.48,1.34,3.23,2.35,
05/25/2025,21:13:25.25,20.02,-29.30,-1010.74,1.83,0.98,-1.83,
05/25/2025,21:13:25.27,17.09,-34.18,-1020.51,-0.06,2.74,-0.34,
05/25/2025,21:13:25.29,21.97,-20.02,-1029.79,2.44,0.15,0.00,
05/25/2025,21:13:25.31,-0.49,-26.86,-1021.00,1.40,2.71,-1.22,
05/25/2025,21:13:25.33,16.60,-23.93,-1019.53,2.99,0.06,3.45,
05/25/2025,21:13:25.35,11.72,-24.90,-1025.88,1.62,2.90,8.54,
05/25/2025,21:13:25.37,21.48,-21.48,-1017.58,1.46,-0.03,8.08,
05/25/2025,21:13:25.39,1.95,-11.72,-1024.90,0.21,2.96,15.91,
05/25/2025,21:13:25.41,33.69,-32.23,-1019.04,2.35,1.25,21.40,
05/25/2025,21:13:25.43,25.88,-30.76,-1028.32,0.82,1.19,-0.40,
05/25/2025,21:13:25.46,17.09,-32.23,-1023.93,-0.43,2.59,-1.98,
05/25/2025,21:13:25.48,3.42,-31.74,-1028.81,1.13,3.90,-0.09,
05/25/2025,21:13:25.50,-21.48,-63.48,-1019.53,1.59,2.47,22.77,
05/25/2025,21:13:25.52,352.54,503.42,-1060.55,3.99,7.87,29.85,
05/25/2025,21:13:25.54,-6.84,0.49,-1077.15,31.31,6.83,25.24,
05/25/2025,21:13:25.56,-6.84,-105.96,-994.63,0.91,8.93,25.43,
05/25/2025,21:13:25.58,-12.21,-28.32,-986.82,10.52,2.87,17.93,
05/25/2025,21:13:25.60,25.88,-16.60,-1021.97,6.19,-0.67,0.40,
05/25/2025,21:13:25.62,1.46,-30.76,-1039.06,1.01,0.18,-2.35,
05/25/2025,21:13:25.64,11.72,-39.06,-1040.04,2.47,-0.18,-31.71,
05/25/2025,21:13:25.66,22.95,-20.51,-1007.32,2.71,0.06,-34.60,
05/25/2025,21:13:25.70,26.86,-4.88,-1022.46,4.94,1.68,-2.41,
05/25/2025,21:13:25.72,15.62,-39.55,-1028.32,4.51,0.95,0.46,
05/25/2025,21:13:25.74,20.02,-21.48,-1019.04,-0.49,1.49,0.76,
05/25/2025,21:13:25.76,14.65,-18.07,-1029.79,1.01,4.09,3.26,
05/25/2025,21:13:25.78,16.11,64.45,-875.00,-2.96,12.44,18.57,
05/25/2025,21:13:25.80,17.58,-214.36,-1051.27,-2.53,17.35,43.60,
05/25/2025,21:13:25.82,2.44,-7.32,-1062.50,-0.12,2.07,-10.64,
05/25/2025,21:13:25.84,19.04,-112.79,-1003.42,1.86,-9.09,-35.34,
05/25/2025,21:13:25.87,24.41,-9.77,-1513.18,-5.06,-12.53,-37.84,
05/25/2025,21:13:25.89,31.74,-39.06,-978.52,-2.80,-1.65,-37.41,
05/25/2025,21:13:25.91,13.18,-21.00,-1021.97,2.10,0.64,-10.49,
05/25/2025,21:13:25.93,6.35,-16.11,-1023.44,3.63,2.93,-4.33,
05/25/2025,21:13:25.95,28.81,0.98,-1033.69,2.90,3.41,0.30,
05/25/2025,21:13:25.97,9.77,-19.53,-1017.09,2.32,1.07,-3.02,
05/25/2025,21:13:25.99,17.09,-20.51,-1023.93,3.26,5.76,-3.72,
05/25/2025,21:13:26.01,7.32,74.22,-1017.09,0.00,0.37,-11.77,
05/25/2025,21:13:26.03,-8.79,45.90,-1003.91,1.10,3.11,-5.67,
05/25/2025,21:13:26.05,19.04,-51.27,-1024.90,1.77,3.96,-1.31,
05/25/2025,21:13:26.07,30.76,-19.04,-1025.88,2.96,1.68,-0.52,
05/25/2025,21:13:26.09,23.44,-17.09,-1031.25,2.99,5.73,2.20,
05/25/2025,21:13:26.11,26.37,-23.93,-1019.53,2.44,2.01,0.03,
05/25/2025,21:13:26.13,21.97,-24.41,-1019.53,0.91,5.34,-3.11,
05/25/2025,21:13:26.15,27.83,-21.00,-1022.95,1.46,0.09,3.87,
05/25/2025,21:13:26.17,18.07,-34.67,-1025.39,2.68,-0.09,-0.18,
05/25/2025,21:13:26.21,8.79,-47.85,-1028.32,2.50,3.72,6.01,
05/25/2025,21:13:26.23,7.81,-4.39,-1022.95,1.89,1.10,16.19,
05/25/2025,21:13:26.26,17.09,-69.82,-1018.55,2.62,-0.95,9.12,
05/25/2025,21:13:26.28,21.97,-26.86,-1021.48,1.77,-1.46,2.87,
05/25/2025,21:13:26.30,29.30,-25.39,-1025.39,1.49,3.69,1.43,
05/25/2025,21:13:26.32,24.41,-27.83,-1022.46,2.96,1.43,-3.41,
05/25/2025,21:13:26.34,6.84,-35.16,-1021.97,2.04,4.27,-1.77,
05/25/2025,21:13:26.36,-0.49,15.14,-1016.11,-3.08,-2.29,-20.03,
05/25/2025,21:13:26.38,30.76,-57.13,-1025.39,1.37,4.66,-8.05,
05/25/2025,21:13:26.40,10.25,-23.44,-1018.07,3.78,5.88,-3.14,
05/25/2025,21:13:26.42,9.28,-17.09,-1014.16,2.65,2.29,-1.83,
05/25/2025,21:13:26.44,20.02,122.56,-1013.18,10.21,0.40,-15.00,
05/25/2025,21:13:26.46,80.08,-218.26,-975.10,0.58,1.74,-8.05,
05/25/2025,21:13:26.48,-32.71,180.18,-937.50,10.21,-0.40,-14.88,
05/25/2025,21:13:26.50,19.04,-36.62,-1035.64,-0.49,1.77,-3.63,
05/25/2025,21:13:26.52,14.65,-24.90,-1020.51,-1.62,-1.22,0.37,
05/25/2025,21:13:26.54,23.44,-14.65,-1026.37,2.74,-1.65,-0.24,
05/25/2025,21:13:26.56,18.07,-35.64,-1015.62,0.49,0.18,0.82,
05/25/2025,21:13:26.58,6.84,-24.90,-1021.48,-1.62,-0.06,1.68,
05/25/2025,21:13:26.60,22.46,-30.27,-1017.58,0.85,3.02,2.29,
05/25/2025,21:13:26.62,20.02,-16.11,-1025.39,1.13,0.09,0.43,
05/25/2025,21:13:26.64,13.18,-18.55,-1021.00,4.02,1.40,-0.15,
05/25/2025,21:13:26.66,17.58,-18.55,-1033.20,2.80,4.09,0.98,
05/25/2025,21:13:26.68,18.55,-19.53,-1026.37,3.05,0.34,2.74,
05/25/2025,21:13:26.73,21.00,-29.30,-1028.81,-0.67,1.98,-1.80,
05/25/2025,21:13:26.75,15.14,-13.18,-1021.97,-1.31,4.33,-0.18,
05/25/2025,21:13:26.77,30.27,-16.11,-1024.41,1.40,4.30,-3.17,
05/25/2025,21:13:26.79,18.55,-14.65,-1025.39,0.03,1.40,-4.51,
05/25/2025,21:13:26.81,18.07,-21.97,-1026.86,1.55,1.43,-2.01,
05/25/2025,21:13:26.83,21.00,-29.30,-1021.48,1.34,1.89,-1.80,
05/25/2025,21:13:26.85,-106.45,235.84,-1093.75,9.42,8.66,22.59,
05/25/2025,21:13:26.87,12.70,-79.59,-1092.77,-5.55,-0.06,8.23,
05/25/2025,21:13:26.89,28.81,-51.27,-1033.69,-5.46,-0.09,13.26,
05/25/2025,21:13:26.91,45.90,-20.02,-937.01,-2.53,0.95,-1.04,
05/25/2025,21:13:26.93,11.23,-89.36,-1007.32,2.07,1.98,-9.15,
05/25/2025,21:13:26.95,15.62,-94.73,-992.19,4.54,3.54,-29.73,
05/25/2025,21:13:26.97,49.80,9.77,-1048.34,-0.98,1.74,1.59,
05/25/2025,21:13:26.99,49.80,-110.84,-984.38,-3.38,-2.90,36.77,
05/25/2025,21:13:27.01,46.88,-29.30,-1015.14,1.07,0.79,4.33,
05/25/2025,21:13:27.03,8.30,-32.23,-1007.81,6.92,3.84,1.28,
05/25/2025,21:13:27.05,11.23,-10.74,-1026.86,4.42,3.63,-2.10,
05/25/2025,21:13:27.07,33.20,-73.73,-1035.64,3.20,2.62,-8.08,
05/25/2025,21:13:27.09,-57.62,333.01,-1243.16,14.39,27.93,-20.12,
05/25/2025,21:13:27.11,46.39,-354.98,-956.54,2.71,-1.89,74.63,
05/25/2025,21:13:27.13,35.16,12.70,-1021.00,5.55,-6.83,7.74,
05/25/2025,21:13:27.15,26.86,-36.62,-1041.02,2.56,-6.80,0.00,
05/25/2025,21:13:27.17,3.42,3.42,-1039.55,4.94,-6.62,-22.16,
05/25/2025,21:13:27.19,11.72,-6.35,-1030.27,2.56,-0.64,-8.23,
05/25/2025,21:13:27.24,13.18,-43.46,-1030.76,4.15,-0.37,-7.65,
05/25/2025,21:13:27.26,16.11,-29.30,-1019.53,5.27,-0.55,-11.71,
05/25/2025,21:13:27.28,-2.44,-36.13,-1021.97,2.10,0.55,-5.98,
05/25/2025,21:13:27.30,3.42,-49.80,-1020.02,-0.64,1.43,1.34,
05/25/2025,21:13:27.32,7.32,-33.20,-1040.53,0.12,0.64,-5.24,
05/25/2025,21:13:27.34,23.93,-27.34,-1024.41,3.08,2.93,-1.22,
05/25/2025,21:13:27.36,20.51,-27.34,-1021.48,1.13,2.16,0.85,
05/25/2025,21:13:27.38,10.74,-37.60,-1022.46,0.70,3.75,-2.38,
05/25/2025,21:13:27.40,11.23,-22.95,-1018.07,1.86,2.90,1.46,
05/25/2025,21:13:27.42,6.35,-35.16,-1016.11,2.35,0.43,0.18,
05/25/2025,21:13:27.44,23.93,-20.51,-1026.37,1.86,3.14,0.85,
05/25/2025,21:13:27.46,44.43,-17.58,-1023.93,-0.85,2.84,8.38,
05/25/2025,21:13:27.48,-53.22,95.21,-1037.11,4.42,9.36,18.38,
05/25/2025,21:13:27.50,15.62,-35.64,-1011.23,5.12,2.29,6.37,
05/25/2025,21:13:27.52,3.42,-32.23,-1022.95,1.49,1.49,-1.77,
05/25/2025,21:13:27.54,-11.23,-41.99,-1025.88,-0.88,-2.93,-0.61,
05/25/2025,21:13:27.56,2.93,-30.76,-1035.16,-0.03,-1.83,-1.62,
05/25/2025,21:13:27.58,8.79,-19.53,-1019.53,-0.76,0.61,0.49,
05/25/2025,21:13:27.60,21.97,-30.76,-1021.97,3.32,1.28,-0.06,
05/25/2025,21:13:27.62,15.62,-31.74,-1017.09,0.55,3.99,-3.54,
05/25/2025,21:13:27.64,21.00,-16.11,-1018.55,1.16,-0.79,1.37,
05/25/2025,21:13:27.66,17.09,-51.27,-1030.27,1.80,0.34,10.21,
05/25/2025,21:13:27.68,33.20,-32.71,-1045.41,1.19,1.13,24.51,
05/25/2025,21:13:27.70,-1.95,-40.04,-1019.04,-1.19,-0.88,13.26,
05/25/2025,21:13:27.76,31.74,-16.11,-1008.30,3.08,-4.05,17.16,
05/25/2025,21:13:27.78,23.44,-50.78,-1019.53,0.73,1.49,15.43,
05/25/2025,21:13:27.80,0.98,-28.81,-1018.55,2.38,1.13,1.49,
05/25/2025,21:13:27.82,19.53,-31.74,-1020.02,1.16,3.57,15.95,
05/25/2025,21:13:27.84,11.72,-38.57,-967.77,0.15,4.66,13.63,
05/25/2025,21:13:27.86,-9.28,-25.88,-1034.67,3.96,3.48,5.82,
05/25/2025,21:13:27.88,10.25,-30.27,-1001.95,-0.21,4.51,-1.86,
05/25/2025,21:13:27.90,-2.44,-41.50,-1021.97,1.04,3.05,1.95,
05/25/2025,21:13:27.92,7.81,-23.44,-1017.09,1.43,3.90,-1.04,
05/25/2025,21:13:27.94,4.88,-29.79,-1022.95,0.98,2.56,-0.88,
05/25/2025,21:13:27.96,-3.42,-34.67,-1023.93,-0.52,2.59,1.49,
05/25/2025,21:13:27.98,30.76,-30.76,-1017.58,-0.03,1.37,2.13,
05/25/2025,21:13:28.00,16.11,-27.34,-1016.60,1.74,-0.03,0.67,
05/25/2025,21:13:28.02,19.04,-25.88,-1028.81,3.20,1.52,0.37,
05/25/2025,21:13:28.04,-2.44,-31.25,-1025.88,0.46,0.79,-1.77,
05/25/2025,21:13:28.06,6.35,-36.62,-1023.93,0.67,1.89,-1.34,
05/25/2025,21:13:28.08,-0.98,-36.62,-1024.90,-1.07,2.10,-3.26,
05/25/2025,21:13:28.10,13.18,-37.60,-1020.02,4.18,2.53,-0.95,
05/25/2025,21:13:28.12,-6.84,-35.64,-1025.39,2.20,1.49,-11.37,
05/25/2025,21:13:28.14,3.91,-41.99,-1006.84,4.24,0.12,-15.09,
05/25/2025,21:13:28.16,0.49,-42.97,-1017.09,2.90,0.15,-17.38,
05/25/2025,21:13:28.18,-3.42,-30.27,-1027.83,2.80,2.44,-13.96,
05/25/2025,21:13:28.20,-157.23,-43.46,-1010.25,2.96,1.98,-15.55,
05/25/2025,21:13:28.22,27.34,-40.04,-1027.34,-2.07,1.49,-7.74,
05/25/2025,21:13:28.29,77.15,-89.84,-1005.37,-0.73,4.39,-1.83,
05/25/2025,21:13:28.31,38.57,-46.88,-1029.30,0.76,3.08,5.30,
05/25/2025,21:13:28.33,3.42,-21.00,-1026.37,0.91,0.61,4.48,
05/25/2025,21:13:28.35,-1.95,-21.48,-1036.13,1.31,-0.37,7.07,
05/25/2025,21:13:28.37,11.23,-34.67,-1001.95,2.41,0.98,6.65,
05/25/2025,21:13:28.39,-3.42,-38.57,-1022.46,2.38,0.24,-0.24,
05/25/2025,21:13:28.41,-1.95,-33.20,-1037.11,3.60,2.47,-2.35,
05/25/2025,21:13:28.43,-10.74,-33.20,-1033.20,1.31,1.49,-4.94,
05/25/2025,21:13:28.45,18.55,-28.32,-1026.86,1.13,1.89,-1.86,
05/25/2025,21:13:28.47,13.67,-27.34,-1025.39,2.59,1.68,1.89,
05/25/2025,21:13:28.50,104.98,-31.25,-1016.60,2.41,2.96,-0.58,
05/25/2025,21:13:28.52,73.24,-36.13,-1012.70,0.64,2.99,-2.23,
05/25/2025,21:13:28.54,28.81,-31.25,-1026.86,2.47,0.76,-3.57,
05/25/2025,21:13:28.56,2.93,-47.85,-1020.02,2.23,2.16,-5.40,
05/25/2025,21:13:28.58,18.55,-45.41,-1024.90,-0.03,1.74,0.88,
05/25/2025,21:13:28.60,3.91,-29.30,-1025.88,0.49,1.83,-2.96,
05/25/2025,21:13:28.62,6.35,-30.76,-1020.51,0.76,0.67,-1.77,
05/25/2025,21:13:28.64,8.30,-27.34,-1032.71,1.01,2.29,0.30,
05/25/2025,21:13:28.66,5.86,-28.32,-1013.67,0.82,2.41,-2.80,
05/25/2025,21:13:28.68,15.62,-25.88,-1023.93,0.91,-0.61,3.02,
05/25/2025,21:13:28.70,-0.49,-15.14,-1016.11,3.02,3.29,-1.98,
05/25/2025,21:13:28.72,19.53,-23.44,-1018.55,0.88,2.59,0.43,
05/25/2025,21:13:28.74,18.07,-30.27,-1023.93,1.46,2.68,-1.92,
05/25/2025,21:13:28.78,-12.70,-34.18,-1020.02,2.41,1.55,0.88,
05/25/2025,21:13:28.81,14.65,-29.30,-1028.81,1.13,2.16,0.88,
05/25/2025,21:13:28.83,2.44,-26.37,-1031.25,1.65,2.44,2.29,
05/25/2025,21:13:28.85,7.81,-38.09,-1026.37,1.92,1.68,-2.71,
05/25/2025,21:13:28.87,4.88,-26.37,-1017.09,0.37,4.85,0.70,
05/25/2025,21:13:28.89,8.79,-29.30,-1021.48,0.73,2.62,-2.77,
05/25/2025,21:13:28.91,5.37,-29.79,-1030.76,0.88,4.73,-1.40,
05/25/2025,21:13:28.93,19.04,-25.39,-1028.32,2.65,1.65,-1.13,
05/25/2025,21:13:28.95,15.14,-35.16,-1023.93,0.67,2.26,0.43,
05/25/2025,21:13:28.97,17.09,-19.53,-1028.81,0.58,-0.21,-2.38,
05/25/2025,21:13:28.99,7.32,-27.83,-1020.02,1.74,3.38,0.76,
05/25/2025,21:13:29.01,17.58,-16.60,-1023.93,1.28,3.60,2.56,
05/25/2025,21:13:29.03,-9.28,-10.25,-1026.86,1.46,2.23,-1.40,
05/25/2025,21:13:29.05,9.77,-30.27,-1017.09,1.34,2.84,-2.32,
05/25/2025,21:13:29.07,1.95,-22.95,-1026.86,1.16,2.47,-0.82,
05/25/2025,21:13:29.09,17.09,-27.34,-1015.62,-0.09,3.63,-0.98,
05/25/2025,21:13:29.11,9.28,-23.44,-1027.34,0.91,0.46,0.79,
05/25/2025,21:13:29.13,10.25,-41.50,-1013.18,0.18,2.41,1.04,
05/25/2025,21:13:29.15,16.11,-31.74,-1028.81,0.55,2.35,1.52,
05/25/2025,21:13:29.17,21.97,-16.60,-1035.16,0.98,2.23,1.10,
05/25/2025,21:13:29.19,-2.44,-25.39,-1023.93,-0.79,2.99,3.08,
05/25/2025,21:13:29.21,9.28,-21.97,-1024.90,0.40,1.28,-1.25,
05/25/2025,21:13:29.23,-7.81,-32.23,-1028.81,1.52,3.20,0.43,
05/25/2025,21:13:29.25,11.72,-39.06,-1014.16,1.19,1.19,1.65,
05/25/2025,21:13:29.30,0.98,-28.81,-1013.18,1.65,2.32,0.24,
05/25/2025,21:13:29.32,15.62,-28.81,-1033.69,1.52,2.20,-0.58,
05/25/2025,21:13:29.34,21.00,-31.74,-1031.74,-1.55,0.09,0.76,
05/25/2025,21:13:29.36,1.95,-31.25,-1016.60,-0.03,3.60,2.93,
05/25/2025,21:13:29.38,12.70,-35.64,-1025.88,1.19,3.38,3.14,
05/25/2025,21:13:29.40,10.74,-28.32,-1019.04,3.54,3.17,2.13,
05/25/2025,21:13:29.42,21.48,-32.23,-1037.11,2.23,0.76,3.17,
05/25/2025,21:13:29.44,6.84,-25.88,-1023.93,3.11,1.65,-1.04,
05/25/2025,21:13:29.46,11.72,-27.83,-1019.53,2.32,0.58,-0.95,
05/25/2025,21:13:29.48,10.74,-20.51,-1024.41,1.71,2.13,-0.12,
05/25/2025,21:13:29.50,22.46,-22.46,-1018.07,0.00,1.92,1.65,
05/25/2025,21:13:29.52,4.39,-22.95,-1021.97,1.10,1.74,-0.91,
05/25/2025,21:13:29.54,13.67,-30.27,-1016.60,3.11,2.80,3.38,
05/25/2025,21:13:29.56,6.84,-19.04,-1023.93,2.29,1.40,-3.29,
05/25/2025,21:13:29.58,9.28,-34.67,-1015.14,-0.67,2.41,-3.35,
05/25/2025,21:13:29.60,14.65,-24.41,-1019.53,3.78,2.01,-0.82,
05/25/2025,21:13:29.62,10.25,-39.55,-1023.44,0.03,2.77,1.25,
05/25/2025,21:13:29.64,19.04,-21.97,-1015.62,0.30,3.26,0.21,
05/25/2025,21:13:29.66,6.84,-34.18,-1024.41,-0.18,2.56,-4.70,
05/25/2025,21:13:29.68,8.79,-35.16,-1025.88,-1.62,4.36,0.73,
05/25/2025,21:13:29.70,1.95,-26.86,-1027.83,1.71,1.89,-0.61,
05/25/2025,21:13:29.72,11.23,-25.39,-1020.02,3.05,2.26,0.85,
05/25/2025,21:13:29.74,13.67,-26.86,-1030.27,-4.24,1.25,1.55,
05/25/2025,21:13:29.76,18.07,-27.34,-1019.04,0.85,-0.12,0.40,
